sub_num,run_num,file_name,trial_num,rt,response,t_direction,accuracy,target_position_1,target_position_2,target_position_3,target_position_4,target_location_type,target_number,trialTypeValid0Invalid1,trialTypeExtraTarget1NoExtraTarget0,extraTargetShapeNumber,extraTargetShapePosition,extraTargetShapeType
37,2,Stimuli\scenes\mainScenes\pexels-curtis-adams-4839334.jpg,1,1141,z,L,1,472,266,577.6,371.6,1,17,0,0,0,0,0
37,2,Stimuli\scenes\mainScenes\pexels-get-lost-mike-8561916.jpg,2,3023,z,L,1,1666,914,1771.6,1019.6,2,20,1,1,17,1,3
37,2,Stimuli\scenes\mainScenes\AdobeStock_479119675.jpeg,3,1383,/?,R,1,606,898,711.6,1003.6,2,21,0,1,12,1,1
37,2,Stimuli\scenes\mainScenes\AdobeStock_196997973.jpeg,4,1688,/?,R,1,1506,552,1611.6,657.6,3,12,1,0,0,0,0
37,2,Stimuli\scenes\mainScenes\pexels-curtis-adams-4713243.jpg,5,1289,/?,R,1,1158,608,1263.6,713.6,1,17,0,0,0,0,0
37,2,Stimuli\scenes\mainScenes\041_L_filler_absent_fruit.jpg,6,1550,/?,R,1,1416,740,1521.6,845.6,3,20,0,1,17,3,1
37,2,Stimuli\scenes\mainScenes\pexels-curtis-adams-10827337.jpg,7,1929,z,L,1,1390,64,1495.6,169.6,1,12,0,1,17,2,2
37,2,Stimuli\scenes\mainScenes\pexels-curtis-adams-15409439.jpg,8,1352,/?,R,1,164,670,269.6,775.6,2,21,0,0,0,0,0
37,2,Stimuli\scenes\mainScenes\pexels-curtis-adams-8031902.jpg,9,1370,/?,R,1,308,188,413.6,293.6,1,17,0,0,0,0,0
37,2,Stimuli\scenes\mainScenes\073_L_filler_absent_coffeemug.jpg,10,1162,/?,R,1,1214,430,1319.6,535.6,3,12,1,0,0,0,0
37,2,Stimuli\scenes\mainScenes\pexels-curtis-adams-3958964.jpg,11,10729,/?,L,0,990,538,1095.6,643.6,3,20,0,1,17,3,1
37,2,Stimuli\scenes\mainScenes\pexels-get-lost-mike-8504308.jpg,12,1395,/?,R,1,360,946,465.6,1051.6,2,21,0,1,20,2,3
37,2,Stimuli\scenes\mainScenes\pexels-max-rahubovskiy-7061668.jpg,13,1243,z,L,1,500,758,605.6,863.6,2,17,1,1,20,2,1
37,2,Stimuli\scenes\mainScenes\AdobeStock_461935168.jpeg,14,1024,/?,R,1,976,126,1081.6,231.6,1,12,0,0,0,0,0
37,2,Stimuli\scenes\mainScenes\pexels-max-rahubovskiy-7587482.jpg,15,930,z,L,1,1240,916,1345.6,1021.6,2,21,0,1,12,1,3
37,2,Stimuli\scenes\mainScenes\pexels-jesse-bannister-7033835.jpg,16,2200,z,L,1,1618,522,1723.6,627.6,3,20,0,0,0,0,0
37,2,Stimuli\scenes\mainScenes\pexels-denys-gromov-4716789.jpg,17,2007,z,L,1,644,898,749.6,1003.6,2,20,1,1,21,4,2
37,2,Stimuli\scenes\mainScenes\pexels-curtis-adams-5502217.jpg,18,1223,/?,R,1,110,724,215.6,829.6,2,21,0,1,12,4,1
37,2,Stimuli\scenes\mainScenes\pexels-max-rahubovskiy-6969864.jpg,19,1777,/?,R,1,1740,324,1845.6,429.6,1,17,0,0,0,0,0
37,2,Stimuli\scenes\mainScenes\022_L_filler_absent_lamp.jpg,20,1206,z,L,1,164,876,269.6,981.6,2,12,1,0,0,0,0
37,2,Stimuli\scenes\mainScenes\pexels-curtis-adams-3935337.jpg,21,2078,/?,R,1,1528,776,1633.6,881.6,3,20,0,0,0,0,0
37,2,Stimuli\scenes\mainScenes\AdobeStock_216902237.jpeg,22,1177,z,L,1,1254,226,1359.6,331.6,1,17,0,1,12,2,2
37,2,Stimuli\scenes\mainScenes\AdobeStock_27579147.jpeg,23,1559,z,L,1,324,816,429.6,921.6,2,21,0,1,17,4,2
37,2,Stimuli\scenes\mainScenes\pexels-curtis-adams-15062099.jpg,24,802,z,L,1,1092,414,1197.6,519.6,1,12,0,0,0,0,0
37,2,Stimuli\scenes\mainScenes\pexels-max-rahubovskiy-6956843.jpg,25,1157,z,L,1,1592,458,1697.6,563.6,1,17,0,0,0,0,0
37,2,Stimuli\scenes\mainScenes\pexels-max-rahubovskiy-6312078.jpg,26,791,z,L,1,1014,852,1119.6,957.6,2,21,0,1,12,3,3
37,2,Stimuli\scenes\mainScenes\pexels-max-rahubovskiy-7031868.jpg,27,2166,/?,R,1,108,660,213.6,765.6,3,20,0,1,12,4,1
37,2,Stimuli\scenes\mainScenes\pexels-max-rahubovskiy-6782481.jpg,28,968,/?,R,1,646,522,751.6,627.6,1,12,0,1,21,1,3
37,2,Stimuli\scenes\mainScenes\pexels-alex-qian-2343467.jpg,29,2454,/?,R,1,236,870,341.6,975.6,3,17,1,0,0,0,0
37,2,Stimuli\scenes\mainScenes\pexels-gustavo-galeano-maz-11315956.jpg,30,1139,/?,R,1,1394,522,1499.6,627.6,3,21,1,1,12,2,2
37,2,Stimuli\scenes\mainScenes\pexels-get-lost-mike-9993440.jpg,31,1259,z,L,1,254,594,359.6,699.6,1,12,0,0,0,0,0
37,2,Stimuli\scenes\mainScenes\pexels-mark-mccammon-2724749.jpg,32,1754,z,L,1,1280,570,1385.6,675.6,3,20,0,0,0,0,0
37,2,Stimuli\scenes\mainScenes\pexels-curtis-adams-4713242.jpg,33,1213,/?,R,1,662,442,767.6,547.6,1,17,0,1,20,3,3
37,2,Stimuli\scenes\mainScenes\pexels-curtis-adams-15062094.jpg,34,1742,/?,R,1,1714,528,1819.6,633.6,1,12,0,0,0,0,0
37,2,Stimuli\scenes\mainScenes\pexels-curtis-adams-15062154.jpg,35,1434,z,L,1,846,916,951.6,1021.6,2,21,0,1,20,1,3
37,2,Stimuli\scenes\mainScenes\pexels-mark-mccammon-1080721.jpg,36,2104,z,L,1,1326,490,1431.6,595.6,3,20,0,1,21,4,2
37,2,Stimuli\scenes\mainScenes\pexels-curtis-adams-4469155.jpg,37,1368,/?,R,1,1606,894,1711.6,999.6,2,21,0,0,0,0,0
37,2,Stimuli\scenes\mainScenes\pexels-loi-bui-trong-17181942.jpg,38,3595,z,L,1,1450,646,1555.6,751.6,3,20,0,0,0,0,0
37,2,Stimuli\scenes\mainScenes\pexels-curtis-adams-4221389.jpg,39,1248,/?,R,1,910,916,1015.6,1021.6,2,17,1,0,0,0,0
37,2,Stimuli\scenes\mainScenes\pexels-level-media-3016430.jpg,40,1406,z,L,1,308,566,413.6,671.6,3,12,1,1,21,2,3
37,2,Stimuli\scenes\mainScenes\pexels-curtis-adams-5900798.jpg,41,1337,/?,R,1,88,190,193.6,295.6,1,17,0,0,0,0,0
37,2,Stimuli\scenes\mainScenes\pexels-max-rahubovskiy-6956124.jpg,42,920,/?,R,1,1148,914,1253.6,1019.6,2,21,0,0,0,0,0
37,2,Stimuli\scenes\mainScenes\pexels-curtis-adams-7028072.jpg,43,2029,z,L,1,124,630,229.6,735.6,3,20,0,1,12,3,2
37,2,Stimuli\scenes\mainScenes\pexels-curtis-adams-8583892.jpg,44,1293,z,L,1,878,892,983.6,997.6,2,12,1,1,17,4,1
37,2,Stimuli\scenes\mainScenes\pexels-curtis-adams-4119833.jpg,45,1024,z,L,1,732,540,837.6,645.6,3,20,0,0,0,0,0
37,2,Stimuli\scenes\mainScenes\pexels-pixabay-534151.jpg,46,1465,z,L,1,142,204,247.6,309.6,1,17,0,1,21,2,3
37,2,Stimuli\scenes\mainScenes\pexels-curtis-adams-4469153.jpg,47,1129,z,L,1,232,680,337.6,785.6,3,21,1,0,0,0,0
37,2,Stimuli\scenes\mainScenes\pexels-curtis-adams-5008398.jpg,48,1099,/?,R,1,138,84,243.6,189.6,1,12,0,1,21,2,3
37,2,Stimuli\scenes\mainScenes\pexels-curtis-adams-10827398.jpg,49,1444,z,L,1,1572,662,1677.6,767.6,3,20,0,1,21,2,2
37,2,Stimuli\scenes\mainScenes\pexels-curtis-adams-8583875.jpg,50,1111,/?,R,1,368,96,473.6,201.6,1,17,0,1,12,4,2
37,2,Stimuli\scenes\mainScenes\pexels-max-rahubovskiy-7005450.jpg,51,1363,/?,R,1,1210,150,1315.6,255.6,1,12,0,0,0,0,0
37,2,Stimuli\scenes\mainScenes\pexels-terry-magallanes-3623785.jpg,52,981,z,L,1,528,442,633.6,547.6,3,21,1,1,17,3,1
37,2,Stimuli\scenes\mainScenes\pexels-keegan-checks-10117731.jpg,53,1347,/?,R,1,638,334,743.6,439.6,1,17,0,1,12,1,3
37,2,Stimuli\scenes\mainScenes\pexels-loi-bui-trong-17158669.jpg,54,1078,/?,R,1,304,746,409.6,851.6,2,20,1,0,0,0,0
37,2,Stimuli\scenes\mainScenes\pexels-curtis-adams-6835139.jpg,55,1259,z,L,1,820,800,925.6,905.6,2,21,0,0,0,0,0
37,2,Stimuli\scenes\mainScenes\pexels-curtis-adams-3773573.jpg,56,910,/?,R,1,932,388,1037.6,493.6,1,12,0,0,0,0,0
37,2,Stimuli\scenes\mainScenes\pexels-curtis-adams-7027786.jpg,57,888,z,L,1,656,468,761.6,573.6,1,17,0,0,0,0,0
37,2,Stimuli\scenes\mainScenes\pexels-get-lost-mike-10450051.jpg,58,1886,z,L,1,1450,660,1555.6,765.6,3,20,0,1,17,2,2
37,2,Stimuli\scenes\mainScenes\AdobeStock_41005076.jpeg,59,1191,/?,R,1,428,830,533.6,935.6,2,21,0,1,17,4,2
37,2,Stimuli\scenes\mainScenes\AdobeStock_216902241.jpeg,60,1969,z,L,1,1698,222,1803.6,327.6,1,12,0,0,0,0,0
