sub_num,run_num,file_name,trial_num,rt,response,t_direction,accuracy,target_position_1,target_position_2,target_position_3,target_position_4,target_location_type,target_number,trialTypeValid0Invalid1,trialTypeExtraTarget1NoExtraTarget0,extraTargetShapeNumber,extraTargetShapePosition,extraTargetShapeType
14,3,Stimuli\scenes\mainScenes\AdobeStock_216902241.jpeg,1,1757,z,L,1,1698,222,1803.6,327.6,1,22,0,1,16,4,3
14,3,Stimuli\scenes\mainScenes\AdobeStock_41005076.jpeg,2,1873,/?,R,1,48,390,153.6,495.6,1,16,1,1,19,1,3
14,3,Stimuli\scenes\mainScenes\pexels-curtis-adams-5008398.jpg,3,1127,/?,R,1,116,534,221.6,639.6,3,13,0,0,0,0,0
14,3,Stimuli\scenes\mainScenes\pexels-curtis-adams-4469155.jpg,4,983,z,L,1,1606,894,1711.6,999.6,2,19,0,1,22,4,1
14,3,Stimuli\scenes\mainScenes\pexels-curtis-adams-6835139.jpg,5,1302,z,L,1,820,800,925.6,905.6,2,22,1,0,0,0,0
14,3,Stimuli\scenes\mainScenes\pexels-curtis-adams-7601072.jpg,6,1120,/?,R,1,1298,510,1403.6,615.6,3,16,0,0,0,0,0
14,3,Stimuli\scenes\mainScenes\pexels-curtis-adams-5008407.jpg,7,1398,/?,R,1,1574,770,1679.6,875.6,3,13,0,0,0,0,0
14,3,Stimuli\scenes\mainScenes\pexels-curtis-adams-6835079.jpg,8,1294,z,L,1,1656,510,1761.6,615.6,3,19,1,1,22,3,3
14,3,Stimuli\scenes\mainScenes\pexels-curtis-adams-7028072.jpg,9,1230,/?,R,1,1610,792,1715.6,897.6,3,16,0,1,19,2,3
14,3,Stimuli\scenes\mainScenes\pexels-max-rahubovskiy-7214338.jpg,10,1525,z,L,1,1334,944,1439.6,1049.6,2,19,0,0,0,0,0
14,3,Stimuli\scenes\mainScenes\pexels-max-rahubovskiy-6956843.jpg,11,2189,/?,R,1,1592,458,1697.6,563.6,1,22,0,1,16,3,1
14,3,Stimuli\scenes\mainScenes\pexels-terry-magallanes-3623785.jpg,12,878,z,L,1,528,442,633.6,547.6,3,13,0,1,22,3,1
14,3,Stimuli\scenes\mainScenes\pexels-curtis-adams-5900806.jpg,13,966,/?,R,1,936,544,1041.6,649.6,3,19,1,0,0,0,0
14,3,Stimuli\scenes\mainScenes\pexels-jean-van-der-meulen-3753437.jpg,14,2143,z,L,1,340,460,445.6,565.6,3,16,0,1,19,4,2
14,3,Stimuli\scenes\mainScenes\pexels-ryan-donnelly-100575.jpg,15,1119,z,L,1,1572,698,1677.6,803.6,3,22,1,1,19,3,1
14,3,Stimuli\scenes\mainScenes\pexels-gustavo-galeano-maz-8363713.jpg,16,1399,z,L,1,1120,650,1225.6,755.6,3,13,0,0,0,0,0
14,3,Stimuli\scenes\mainScenes\pexels-curtis-adams-4119833.jpg,17,2016,/?,R,1,1136,200,1241.6,305.6,1,22,0,0,0,0,0
14,3,Stimuli\scenes\mainScenes\pexels-curtis-adams-3935337.jpg,18,1734,z,L,1,258,566,363.6,671.6,3,16,0,1,19,2,3
14,3,Stimuli\scenes\mainScenes\080_L_filler_absent_plant.jpg,19,1760,/?,R,1,158,514,263.6,619.6,3,13,0,1,22,4,2
14,3,Stimuli\scenes\mainScenes\pexels-pixabay-534151.jpg,20,1384,/?,R,1,1278,696,1383.6,801.6,2,19,0,0,0,0,0
14,3,Stimuli\scenes\mainScenes\pexels-mark-mccammon-1080721.jpg,21,2641,/?,R,1,1060,772,1165.6,877.6,3,16,0,1,22,3,1
14,3,Stimuli\scenes\mainScenes\pexels-curtis-adams-5353944.jpg,22,959,z,L,1,1550,928,1655.6,1033.6,2,13,1,1,19,2,3
14,3,Stimuli\scenes\mainScenes\AdobeStock_196997973.jpeg,23,1213,/?,R,1,442,936,547.6,1041.6,2,19,0,1,16,1,3
14,3,Stimuli\scenes\mainScenes\AdobeStock_479119675.jpeg,24,1758,z,L,1,1472,158,1577.6,263.6,1,22,0,0,0,0,0
14,3,Stimuli\scenes\mainScenes\pexels-alex-qian-2343467.jpg,25,1621,/?,R,1,1494,436,1599.6,541.6,1,16,1,0,0,0,0
14,3,Stimuli\scenes\mainScenes\pexels-max-rahubovskiy-6782481.jpg,26,976,/?,R,1,646,522,751.6,627.6,1,22,0,1,19,1,3
14,3,Stimuli\scenes\mainScenes\pexels-curtis-adams-3990599.jpg,27,1190,z,L,1,384,404,489.6,509.6,3,13,0,0,0,0,0
14,3,Stimuli\scenes\mainScenes\022_L_filler_absent_lamp.jpg,28,1353,z,L,1,164,876,269.6,981.6,2,19,0,0,0,0,0
14,3,Stimuli\scenes\mainScenes\pexels-curtis-adams-8031902.jpg,29,974,/?,R,1,716,780,821.6,885.6,2,19,0,0,0,0,0
14,3,Stimuli\scenes\mainScenes\pexels-max-rahubovskiy-6969864.jpg,30,1094,z,L,1,1156,476,1261.6,581.6,3,16,0,1,19,3,2
14,3,Stimuli\scenes\mainScenes\pexels-get-lost-mike-8561916.jpg,31,1069,/?,R,1,1396,768,1501.6,873.6,3,13,0,0,0,0,0
14,3,Stimuli\scenes\mainScenes\pexels-gustavo-galeano-maz-11315956.jpg,32,983,z,L,1,864,288,969.6,393.6,1,22,0,0,0,0,0
14,3,Stimuli\scenes\mainScenes\pexels-curtis-adams-3958964.jpg,33,799,z,L,1,990,538,1095.6,643.6,3,22,1,0,0,0,0
14,3,Stimuli\scenes\mainScenes\pexels-curtis-adams-8583875.jpg,34,1023,z,L,1,766,578,871.6,683.6,3,16,0,1,22,4,2
14,3,Stimuli\scenes\mainScenes\pexels-loi-bui-trong-17181942.jpg,35,1416,/?,R,1,1450,646,1555.6,751.6,3,13,0,1,16,2,1
14,3,Stimuli\scenes\mainScenes\pexels-curtis-adams-15062099.jpg,36,840,z,L,1,1092,414,1197.6,519.6,1,19,1,1,22,3,2
14,3,Stimuli\scenes\mainScenes\pexels-curtis-adams-7027784.jpg,37,1493,/?,R,1,254,730,359.6,835.6,3,16,0,1,22,2,2
14,3,Stimuli\scenes\mainScenes\pexels-curtis-adams-10827337.jpg,38,1056,/?,R,1,1026,624,1131.6,729.6,3,22,1,0,0,0,0
14,3,Stimuli\scenes\mainScenes\pexels-max-rahubovskiy-7005450.jpg,39,1766,z,L,1,1520,524,1625.6,629.6,3,13,0,1,16,2,2
14,3,Stimuli\scenes\mainScenes\pexels-curtis-adams-15062099.jpg,40,1368,z,L,1,1444,918,1549.6,1023.6,2,19,0,0,0,0,0
14,3,Stimuli\scenes\mainScenes\pexels-max-rahubovskiy-7031868.jpg,41,1814,/?,R,1,1686,360,1791.6,465.6,1,22,0,0,0,0,0
14,3,Stimuli\scenes\mainScenes\pexels-level-media-3016430.jpg,42,1486,z,L,1,1628,362,1733.6,467.6,1,16,1,1,19,2,3
14,3,Stimuli\scenes\mainScenes\pexels-skitterphoto-349749.jpg,43,2311,/?,R,1,1704,598,1809.6,703.6,3,13,0,1,19,2,1
14,3,Stimuli\scenes\mainScenes\pexels-gustavo-galeano-maz-8363713.jpg,44,1205,/?,R,1,678,920,783.6,1025.6,2,19,0,0,0,0,0
14,3,Stimuli\scenes\mainScenes\pexels-get-lost-mike-8504308.jpg,45,1383,/?,R,1,1674,314,1779.6,419.6,1,22,0,1,19,1,2
14,3,Stimuli\scenes\mainScenes\pexels-max-rahubovskiy-7214338.jpg,46,886,z,L,1,1334,548,1439.6,653.6,3,16,0,1,13,4,2
14,3,Stimuli\scenes\mainScenes\pexels-curtis-adams-3958964.jpg,47,794,/?,R,1,990,538,1095.6,643.6,3,19,1,1,13,2,2
14,3,Stimuli\scenes\mainScenes\pexels-curtis-adams-6835079.jpg,48,1815,z,L,1,1656,510,1761.6,615.6,3,13,0,1,19,3,3
14,3,Stimuli\scenes\mainScenes\pexels-curtis-adams-5008407.jpg,49,1303,/?,R,1,1574,770,1679.6,875.6,3,16,0,0,0,0,0
14,3,Stimuli\scenes\mainScenes\pexels-max-rahubovskiy-6956843.jpg,50,1284,/?,R,1,508,888,613.6,993.6,2,19,0,0,0,0,0
14,3,Stimuli\scenes\mainScenes\pexels-curtis-adams-15062154.jpg,51,2775,z,L,1,534,340,639.6,445.6,1,13,1,0,0,0,0
14,3,Stimuli\scenes\mainScenes\pexels-get-lost-mike-8561916.jpg,52,1758,/?,R,1,254,206,359.6,311.6,1,22,0,0,0,0,0
14,3,Stimuli\scenes\mainScenes\pexels-curtis-adams-4682110.jpg,53,1559,z,L,1,322,898,427.6,1003.6,2,16,1,0,0,0,0
14,3,Stimuli\scenes\mainScenes\pexels-keegan-checks-10117731.jpg,54,893,/?,R,1,1290,548,1395.6,653.6,3,13,0,0,0,0,0
14,3,Stimuli\scenes\mainScenes\AdobeStock_106076039.jpeg,55,1287,/?,R,1,32,230,137.6,335.6,1,19,1,1,22,3,3
14,3,Stimuli\scenes\mainScenes\AdobeStock_41005076.jpeg,56,1080,z,L,1,48,390,153.6,495.6,1,22,0,0,0,0,0
14,3,Stimuli\scenes\mainScenes\pexels-curtis-adams-10827398.jpg,57,911,/?,R,1,616,812,721.6,917.6,2,19,0,0,0,0,0
14,3,Stimuli\scenes\mainScenes\pexels-curtis-adams-6835139.jpg,58,2133,z,L,1,950,260,1055.6,365.6,1,22,0,1,19,2,3
14,3,Stimuli\scenes\mainScenes\pexels-curtis-adams-5900806.jpg,59,1264,z,L,1,936,544,1041.6,649.6,3,16,0,1,19,1,1
14,3,Stimuli\scenes\mainScenes\022_L_filler_absent_lamp.jpg,60,1119,z,L,1,1278,626,1383.6,731.6,3,13,0,1,19,1,1
