sub_num,run_num,file_name,trial_num,rt,response,t_direction,accuracy,target_position_1,target_position_2,target_position_3,target_position_4,target_location_type,target_number,trialTypeValid0Invalid1,trialTypeExtraTarget1NoExtraTarget0,extraTargetShapeNumber,extraTargetShapePosition,extraTargetShapeType
17,2,Stimuli\scenes\mainScenes\pexels-curtis-adams-3773573.jpg,1,667,z,L,1,932,388,1037.6,493.6,1,2,1,0,0,0,0
17,2,Stimuli\scenes\mainScenes\pexels-pixabay-271647.jpg,2,879,/?,L,0,1518,362,1623.6,467.6,1,13,0,0,0,0,0
17,2,Stimuli\scenes\mainScenes\pexels-curtis-adams-3935337.jpg,3,1423,z,L,1,998,672,1103.6,777.6,2,17,1,1,1,1,3
17,2,Stimuli\scenes\mainScenes\pexels-get-lost-mike-10450051.jpg,4,1290,/?,R,1,664,546,769.6,651.6,3,1,0,1,17,2,2
17,2,Stimuli\scenes\mainScenes\080_L_filler_absent_plant.jpg,5,865,/?,R,1,756,212,861.6,317.6,1,13,0,1,17,4,2
17,2,Stimuli\scenes\mainScenes\pexels-curtis-adams-7601072.jpg,6,938,z,L,1,590,926,695.6,1031.6,2,2,0,1,13,1,3
17,2,Stimuli\scenes\mainScenes\pexels-get-lost-mike-8504308.jpg,7,1012,/?,R,1,1648,562,1753.6,667.6,3,17,0,0,0,0,0
17,2,Stimuli\scenes\mainScenes\pexels-curtis-adams-5008407.jpg,8,1994,/?,R,1,1574,770,1679.6,875.6,3,1,0,0,0,0,0
17,2,Stimuli\scenes\mainScenes\pexels-curtis-adams-10827337.jpg,9,1174,/?,R,1,648,914,753.6,1019.6,2,13,1,0,0,0,0
17,2,Stimuli\scenes\mainScenes\pexels-jean-van-der-meulen-3753437.jpg,10,786,/?,R,1,340,460,445.6,565.6,3,17,0,1,2,3,2
17,2,Stimuli\scenes\mainScenes\pexels-get-lost-mike-9993440.jpg,11,933,z,L,1,860,678,965.6,783.6,2,1,1,1,13,3,3
17,2,Stimuli\scenes\mainScenes\pexels-curtis-adams-5008398.jpg,12,635,/?,R,1,900,882,1005.6,987.6,2,2,0,0,0,0,0
17,2,Stimuli\scenes\mainScenes\pexels-get-lost-mike-8561916.jpg,13,1390,z,L,1,1666,914,1771.6,1019.6,2,2,0,0,0,0,0
17,2,Stimuli\scenes\mainScenes\AdobeStock_461935168.jpeg,14,1363,z,L,1,462,566,567.6,671.6,3,17,0,1,13,2,2
17,2,Stimuli\scenes\mainScenes\041_L_filler_absent_fruit.jpg,15,972,z,L,1,374,268,479.6,373.6,1,13,0,0,0,0,0
17,2,Stimuli\scenes\mainScenes\pexels-curtis-adams-6835079.jpg,16,1123,z,L,1,1656,510,1761.6,615.6,3,1,0,1,2,2,2
17,2,Stimuli\scenes\mainScenes\AdobeStock_216902237.jpeg,17,1953,/?,R,1,338,476,443.6,581.6,3,17,0,0,0,0,0
17,2,Stimuli\scenes\mainScenes\pexels-curtis-adams-8031902.jpg,18,611,/?,R,1,982,530,1087.6,635.6,3,1,0,0,0,0,0
17,2,Stimuli\scenes\mainScenes\pexels-curtis-adams-7601172.jpg,19,1460,z,L,1,1612,834,1717.6,939.6,2,2,0,1,1,2,1
17,2,Stimuli\scenes\mainScenes\pexels-alexander-zvir-4252510.jpg,20,1117,z,L,1,396,212,501.6,317.6,1,13,0,1,1,2,2
17,2,Stimuli\scenes\mainScenes\pexels-curtis-adams-15062154.jpg,21,2342,z,L,1,1252,540,1357.6,645.6,3,17,0,0,0,0,0
17,2,Stimuli\scenes\mainScenes\pexels-max-rahubovskiy-7031868.jpg,22,1162,/?,R,1,1094,70,1199.6,175.6,1,13,0,1,17,2,2
17,2,Stimuli\scenes\mainScenes\pexels-curtis-adams-5353944.jpg,23,2073,z,L,1,1644,132,1749.6,237.6,1,2,1,0,0,0,0
17,2,Stimuli\scenes\mainScenes\pexels-mark-mccammon-2724749.jpg,24,1094,z,L,1,216,466,321.6,571.6,1,1,1,1,2,1,3
17,2,Stimuli\scenes\mainScenes\073_L_filler_absent_coffeemug.jpg,25,1401,/?,R,1,1214,430,1319.6,535.6,3,17,0,1,13,1,3
17,2,Stimuli\scenes\mainScenes\pexels-curtis-adams-4713243.jpg,26,3285,/?,R,1,1354,888,1459.6,993.6,2,13,1,1,17,4,3
17,2,Stimuli\scenes\mainScenes\pexels-curtis-adams-8583892.jpg,27,979,z,L,1,878,892,983.6,997.6,2,2,0,0,0,0,0
17,2,Stimuli\scenes\mainScenes\pexels-max-rahubovskiy-7005450.jpg,28,1499,z,L,1,1520,524,1625.6,629.6,3,1,0,0,0,0,0
17,2,Stimuli\scenes\mainScenes\pexels-max-rahubovskiy-6956124.jpg,29,1163,/?,R,1,430,890,535.6,995.6,3,17,0,1,13,1,2
17,2,Stimuli\scenes\mainScenes\pexels-max-rahubovskiy-6956843.jpg,30,643,z,R,0,568,508,673.6,613.6,3,1,0,0,0,0,0
17,2,Stimuli\scenes\mainScenes\pexels-loi-bui-trong-17158669.jpg,31,1737,z,L,1,1262,854,1367.6,959.6,2,13,1,0,0,0,0
17,2,Stimuli\scenes\mainScenes\pexels-max-rahubovskiy-6969864.jpg,32,1245,z,L,1,1630,966,1735.6,1071.6,2,2,0,1,13,1,3
17,2,Stimuli\scenes\mainScenes\pexels-skitterphoto-349749.jpg,33,2111,z,L,1,1704,598,1809.6,703.6,3,17,0,1,2,4,3
17,2,Stimuli\scenes\mainScenes\AdobeStock_214273596.jpeg,34,1193,z,L,1,828,668,933.6,773.6,2,2,0,0,0,0,0
17,2,Stimuli\scenes\mainScenes\pexels-curtis-adams-4469155.jpg,35,949,/?,R,1,468,534,573.6,639.6,3,1,0,1,17,2,2
17,2,Stimuli\scenes\mainScenes\pexels-max-rahubovskiy-6312077.jpg,36,1294,z,L,1,1548,448,1653.6,553.6,1,13,0,1,1,1,3
17,2,Stimuli\scenes\mainScenes\pexels-curtis-adams-5900798.jpg,37,1343,z,L,1,766,490,871.6,595.6,3,13,1,1,1,1,1
17,2,Stimuli\scenes\mainScenes\pexels-max-rahubovskiy-6980568.jpg,38,884,z,L,1,1012,942,1117.6,1047.6,2,2,0,0,0,0,0
17,2,Stimuli\scenes\mainScenes\pexels-denys-gromov-4716789.jpg,39,1449,z,L,1,708,230,813.6,335.6,1,17,1,0,0,0,0
17,2,Stimuli\scenes\mainScenes\pexels-pixabay-534151.jpg,40,1253,z,L,1,170,656,275.6,761.6,3,1,0,0,0,0,0
17,2,Stimuli\scenes\mainScenes\AdobeStock_216902241.jpeg,41,865,/?,R,1,660,288,765.6,393.6,3,17,0,0,0,0,0
17,2,Stimuli\scenes\mainScenes\pexels-curtis-adams-4258272.jpg,42,833,z,L,1,1724,318,1829.6,423.6,1,1,1,0,0,0,0
17,2,Stimuli\scenes\mainScenes\022_L_filler_absent_lamp.jpg,43,1589,z,L,1,676,112,781.6,217.6,1,13,0,0,0,0,0
17,2,Stimuli\scenes\mainScenes\pexels-max-rahubovskiy-7060815.jpg,44,1280,/?,R,1,1692,930,1797.6,1035.6,2,2,0,1,17,3,3
17,2,Stimuli\scenes\mainScenes\pexels-curtis-adams-7028072.jpg,45,1808,z,L,1,1610,792,1715.6,897.6,3,17,0,1,2,4,1
17,2,Stimuli\scenes\mainScenes\pexels-max-rahubovskiy-7018399.jpg,46,1376,/?,R,1,1618,78,1723.6,183.6,1,2,1,1,17,2,2
17,2,Stimuli\scenes\mainScenes\pexels-mark-mccammon-1080721.jpg,47,854,/?,R,1,408,214,513.6,319.6,1,13,0,0,0,0,0
17,2,Stimuli\scenes\mainScenes\AdobeStock_196997973.jpeg,48,886,z,L,1,464,530,569.6,635.6,3,1,0,1,13,2,1
17,2,Stimuli\scenes\mainScenes\pexels-jean-van-der-meulen-1599791.jpg,49,1418,z,L,1,850,922,955.6,1027.6,2,2,0,0,0,0,0
17,2,Stimuli\scenes\mainScenes\pexels-max-rahubovskiy-7061393.jpg,50,1623,/?,R,1,396,728,501.6,833.6,3,17,0,1,2,1,3
17,2,Stimuli\scenes\mainScenes\pexels-curtis-adams-8583875.jpg,51,800,/?,R,1,766,578,871.6,683.6,3,1,0,1,13,3,1
17,2,Stimuli\scenes\mainScenes\AdobeStock_479119675.jpeg,52,681,/?,R,1,336,538,441.6,643.6,3,13,1,0,0,0,0
17,2,Stimuli\scenes\mainScenes\pexels-curtis-adams-15062094.jpg,53,1396,/?,R,1,1230,578,1335.6,683.6,3,17,0,0,0,0,0
17,2,Stimuli\scenes\mainScenes\pexels-curtis-adams-7027852.jpg,54,2616,z,L,1,1370,572,1475.6,677.6,2,2,0,1,13,4,1
17,2,Stimuli\scenes\mainScenes\pexels-curtis-adams-3990599.jpg,55,1015,/?,R,1,680,516,785.6,621.6,2,1,1,1,13,4,1
17,2,Stimuli\scenes\mainScenes\pexels-curtis-adams-4800177.jpg,56,2246,/?,R,1,386,140,491.6,245.6,1,13,0,0,0,0,0
17,2,Stimuli\scenes\mainScenes\pexels-max-rahubovskiy-6312078.jpg,57,995,z,L,1,128,468,233.6,573.6,1,13,0,0,0,0,0
17,2,Stimuli\scenes\mainScenes\pexels-curtis-adams-10827398.jpg,58,1256,z,L,1,1572,662,1677.6,767.6,3,17,0,1,2,4,1
17,2,Stimuli\scenes\mainScenes\pexels-terry-magallanes-3623785.jpg,59,711,/?,R,1,528,442,633.6,547.6,3,2,1,0,0,0,0
17,2,Stimuli\scenes\mainScenes\pexels-curtis-adams-4221389.jpg,60,1491,/?,R,1,1714,630,1819.6,735.6,3,1,0,1,2,2,3
