sub_num,run_num,file_name,trial_num,rt,response,t_direction,accuracy,target_position_1,target_position_2,target_position_3,target_position_4,target_location_type,target_number,trialTypeValid0Invalid1,trialTypeExtraTarget1NoExtraTarget0,extraTargetShapeNumber,extraTargetShapePosition,extraTargetShapeType
35,5,Stimuli\scenes\mainScenes\pexels-curtis-adams-4469155.jpg,1,1267,/?,R,1,1694,482,1799.6,587.6,1,10,0,1,16,3,3
35,5,Stimuli\scenes\mainScenes\AdobeStock_41005076.jpeg,2,864,z,L,1,1114,894,1219.6,999.6,2,4,0,1,16,3,2
35,5,Stimuli\scenes\mainScenes\pexels-denys-gromov-4716789.jpg,3,966,z,L,1,316,486,421.6,591.6,3,3,0,1,16,3,2
35,5,Stimuli\scenes\mainScenes\pexels-max-rahubovskiy-6312078.jpg,4,1928,z,L,1,1758,598,1863.6,703.6,3,16,0,0,0,0,0
35,5,Stimuli\scenes\mainScenes\pexels-curtis-adams-6835139.jpg,5,1182,z,L,1,820,800,925.6,905.6,2,4,0,0,0,0,0
35,5,Stimuli\scenes\mainScenes\pexels-jean-van-der-meulen-3753437.jpg,6,1310,/?,R,1,936,902,1041.6,1007.6,2,3,1,0,0,0,0
35,5,Stimuli\scenes\mainScenes\pexels-max-rahubovskiy-7031868.jpg,7,2246,z,L,1,108,660,213.6,765.6,3,16,0,1,10,2,2
35,5,Stimuli\scenes\mainScenes\pexels-curtis-adams-4469153.jpg,8,1221,z,L,1,546,392,651.6,497.6,1,10,0,0,0,0,0
35,5,Stimuli\scenes\mainScenes\pexels-max-rahubovskiy-6312077.jpg,9,1655,/?,R,1,1684,638,1789.6,743.6,3,3,0,0,0,0,0
35,5,Stimuli\scenes\mainScenes\022_L_filler_absent_lamp.jpg,10,1309,/?,R,1,1568,318,1673.6,423.6,1,4,1,1,10,2,3
35,5,Stimuli\scenes\mainScenes\pexels-curtis-adams-7601072.jpg,11,1791,/?,R,1,1400,248,1505.6,353.6,1,10,0,1,4,1,3
35,5,Stimuli\scenes\mainScenes\pexels-curtis-adams-5900798.jpg,12,1744,z,L,1,1580,532,1685.6,637.6,3,16,0,1,10,2,3
35,5,Stimuli\scenes\mainScenes\pexels-curtis-adams-10827337.jpg,13,1152,/?,R,1,258,480,363.6,585.6,1,10,0,1,16,3,3
35,5,Stimuli\scenes\mainScenes\pexels-max-rahubovskiy-6489116.jpg,14,1093,/?,R,1,214,912,319.6,1017.6,2,3,1,1,4,3,1
35,5,Stimuli\scenes\mainScenes\pexels-max-rahubovskiy-7005450.jpg,15,1959,z,L,1,1520,524,1625.6,629.6,3,16,0,1,4,4,1
35,5,Stimuli\scenes\mainScenes\pexels-max-rahubovskiy-7061393.jpg,16,1174,/?,R,1,1602,844,1707.6,949.6,3,4,1,0,0,0,0
35,5,Stimuli\scenes\mainScenes\pexels-curtis-adams-8583892.jpg,17,775,/?,R,1,878,892,983.6,997.6,2,4,0,0,0,0,0
35,5,Stimuli\scenes\mainScenes\pexels-curtis-adams-15062094.jpg,18,968,z,L,1,1714,528,1819.6,633.6,1,10,0,0,0,0,0
35,5,Stimuli\scenes\mainScenes\pexels-gustavo-galeano-maz-8363713.jpg,19,1167,/?,R,1,604,550,709.6,655.6,3,3,0,0,0,0,0
35,5,Stimuli\scenes\mainScenes\pexels-curtis-adams-7028072.jpg,20,2075,z,L,1,124,630,229.6,735.6,3,16,0,1,4,4,1
35,5,Stimuli\scenes\mainScenes\pexels-mark-mccammon-1080721.jpg,21,864,/?,R,1,408,214,513.6,319.6,1,4,1,1,3,2,3
35,5,Stimuli\scenes\mainScenes\pexels-curtis-adams-7601072.jpg,22,1366,z,L,1,1400,248,1505.6,353.6,1,10,0,1,4,4,3
35,5,Stimuli\scenes\mainScenes\pexels-max-rahubovskiy-6969864.jpg,23,2024,z,L,1,1740,324,1845.6,429.6,1,3,1,0,0,0,0
35,5,Stimuli\scenes\mainScenes\041_L_filler_absent_fruit.jpg,24,1801,/?,R,1,374,744,479.6,849.6,3,16,0,1,4,4,2
35,5,Stimuli\scenes\mainScenes\pexels-curtis-adams-7027760.jpg,25,1143,/?,R,1,562,838,667.6,943.6,3,3,0,1,16,4,2
35,5,Stimuli\scenes\mainScenes\pexels-curtis-adams-8031902.jpg,26,1127,/?,R,1,716,780,821.6,885.6,2,4,0,0,0,0,0
35,5,Stimuli\scenes\mainScenes\pexels-curtis-adams-6835139.jpg,27,1054,/?,R,1,950,260,1055.6,365.6,1,10,0,0,0,0,0
35,5,Stimuli\scenes\mainScenes\pexels-curtis-adams-4713243.jpg,28,960,/?,R,1,672,894,777.6,999.6,3,16,0,0,0,0,0
35,5,Stimuli\scenes\mainScenes\AdobeStock_216902237.jpeg,29,1006,/?,R,1,338,476,443.6,581.6,3,3,0,0,0,0,0
35,5,Stimuli\scenes\mainScenes\AdobeStock_461935168.jpeg,30,972,z,L,1,976,126,1081.6,231.6,1,4,1,1,10,2,2
35,5,Stimuli\scenes\mainScenes\pexels-max-rahubovskiy-7060815.jpg,31,877,/?,L,0,1620,622,1725.6,727.6,3,16,0,1,3,2,3
35,5,Stimuli\scenes\mainScenes\pexels-curtis-adams-4119833.jpg,32,4070,z,L,1,1136,200,1241.6,305.6,1,10,0,0,0,0,0
35,5,Stimuli\scenes\mainScenes\pexels-get-lost-mike-9993440.jpg,33,1382,z,L,1,1450,930,1555.6,1035.6,3,3,0,1,4,3,3
35,5,Stimuli\scenes\mainScenes\pexels-curtis-adams-4682110.jpg,34,1247,z,L,1,1160,688,1265.6,793.6,3,16,0,0,0,0,0
35,5,Stimuli\scenes\mainScenes\pexels-curtis-adams-7027784.jpg,35,1046,z,L,1,1608,920,1713.6,1025.6,2,4,0,1,3,3,3
35,5,Stimuli\scenes\mainScenes\AdobeStock_196997973.jpeg,36,864,z,L,1,1506,552,1611.6,657.6,3,10,1,0,0,0,0
35,5,Stimuli\scenes\mainScenes\pexels-curtis-adams-4258272.jpg,37,1127,/?,R,1,186,562,291.6,667.6,2,4,0,0,0,0,0
35,5,Stimuli\scenes\mainScenes\080_L_filler_absent_plant.jpg,38,1337,z,L,1,1170,542,1275.6,647.6,3,3,0,0,0,0,0
35,5,Stimuli\scenes\mainScenes\pexels-pixabay-534151.jpg,39,1600,/?,R,1,142,204,247.6,309.6,1,10,0,0,0,0,0
35,5,Stimuli\scenes\mainScenes\pexels-skitterphoto-349749.jpg,40,1326,/?,R,1,1704,598,1809.6,703.6,3,16,0,1,10,2,1
35,5,Stimuli\scenes\mainScenes\pexels-curtis-adams-3958964.jpg,41,1438,z,L,1,990,538,1095.6,643.6,3,3,0,1,10,4,1
35,5,Stimuli\scenes\mainScenes\pexels-curtis-adams-7027786.jpg,42,1046,/?,R,1,290,744,395.6,849.6,3,10,1,1,4,1,3
35,5,Stimuli\scenes\mainScenes\pexels-curtis-adams-5008398.jpg,43,904,/?,R,1,900,882,1005.6,987.6,2,16,1,0,0,0,0
35,5,Stimuli\scenes\mainScenes\pexels-curtis-adams-3990599.jpg,44,822,/?,R,1,680,516,785.6,621.6,2,4,0,1,10,4,1
35,5,Stimuli\scenes\mainScenes\pexels-max-rahubovskiy-7031868.jpg,45,1744,z,L,1,1094,70,1199.6,175.6,1,10,0,0,0,0,0
35,5,Stimuli\scenes\mainScenes\pexels-sharath-g-4722305.jpg,46,1279,z,L,1,1446,848,1551.6,953.6,3,3,0,0,0,0,0
35,5,Stimuli\scenes\mainScenes\pexels-curtis-adams-4469155.jpg,47,1326,z,L,1,806,396,911.6,501.6,1,16,1,1,4,1,1
35,5,Stimuli\scenes\mainScenes\pexels-curtis-adams-15409439.jpg,48,1448,/?,R,1,684,694,789.6,799.6,2,4,0,0,0,0,0
35,5,Stimuli\scenes\mainScenes\pexels-keegan-checks-10117731.jpg,49,1094,z,L,1,1290,548,1395.6,653.6,3,3,0,1,10,1,3
35,5,Stimuli\scenes\mainScenes\pexels-curtis-adams-5353944.jpg,50,1281,z,L,1,794,580,899.6,685.6,3,16,0,1,3,3,2
35,5,Stimuli\scenes\mainScenes\pexels-max-rahubovskiy-7061668.jpg,51,1053,/?,R,1,500,758,605.6,863.6,2,10,1,0,0,0,0
35,5,Stimuli\scenes\mainScenes\pexels-get-lost-mike-8561916.jpg,52,2147,/?,R,1,1666,914,1771.6,1019.6,2,4,0,1,3,1,3
35,5,Stimuli\scenes\mainScenes\pexels-curtis-adams-8186477.jpg,53,1158,/?,R,1,1298,954,1403.6,1059.6,2,4,0,1,3,2,1
35,5,Stimuli\scenes\mainScenes\pexels-level-media-3016430.jpg,54,1136,z,L,1,1628,892,1733.6,997.6,2,10,1,0,0,0,0
35,5,Stimuli\scenes\mainScenes\pexels-terry-magallanes-3623785.jpg,55,974,/?,R,1,528,442,633.6,547.6,3,3,0,0,0,0,0
35,5,Stimuli\scenes\mainScenes\073_L_filler_absent_coffeemug.jpg,56,993,z,L,1,474,290,579.6,395.6,1,16,1,1,10,1,3
35,5,Stimuli\scenes\mainScenes\pexels-saviesa-home-2089698.jpg,57,1260,/?,R,1,712,328,817.6,433.6,1,10,0,1,4,3,2
35,5,Stimuli\scenes\mainScenes\pexels-mark-mccammon-2724749.jpg,58,879,z,L,1,1382,918,1487.6,1023.6,2,4,0,0,0,0,0
35,5,Stimuli\scenes\mainScenes\pexels-max-rahubovskiy-6312077.jpg,59,1056,z,L,1,682,552,787.6,657.6,3,3,0,1,16,3,1
35,5,Stimuli\scenes\mainScenes\pexels-curtis-adams-5502217.jpg,60,2071,/?,R,1,1480,828,1585.6,933.6,3,16,0,0,0,0,0
