sub_num,run_num,file_name,trial_num,rt,response,t_direction,accuracy,target_position_1,target_position_2,target_position_3,target_position_4,target_location_type,target_number,trialTypeValid0Invalid1,trialTypeExtraTarget1NoExtraTarget0,extraTargetShapeNumber,extraTargetShapePosition,extraTargetShapeType
32,4,Stimuli\scenes\mainScenes\pexels-curtis-adams-6835079.jpg,1,1137,z,L,1,1010,910,1115.6,1015.6,2,7,0,1,1,4,1
32,4,Stimuli\scenes\mainScenes\pexels-keegan-checks-10117731.jpg,2,722,/?,R,1,638,334,743.6,439.6,1,21,1,0,0,0,0
32,4,Stimuli\scenes\mainScenes\pexels-curtis-adams-8583875.jpg,3,935,/?,R,1,368,96,473.6,201.6,1,13,0,0,0,0,0
32,4,Stimuli\scenes\mainScenes\pexels-curtis-adams-8583892.jpg,4,1129,z,L,1,1504,622,1609.6,727.6,3,1,0,1,7,3,3
32,4,Stimuli\scenes\mainScenes\pexels-max-rahubovskiy-7060815.jpg,5,776,/?,R,1,1028,176,1133.6,281.6,1,13,0,1,1,3,3
32,4,Stimuli\scenes\mainScenes\pexels-max-rahubovskiy-6782481.jpg,6,1034,z,L,1,1028,938,1133.6,1043.6,2,7,0,0,0,0,0
32,4,Stimuli\scenes\mainScenes\pexels-curtis-adams-8031902.jpg,7,869,/?,R,1,982,530,1087.6,635.6,3,1,0,0,0,0,0
32,4,Stimuli\scenes\mainScenes\pexels-max-rahubovskiy-6956843.jpg,8,713,z,L,1,1070,274,1175.6,379.6,1,21,1,1,13,4,1
32,4,Stimuli\scenes\mainScenes\pexels-curtis-adams-7601072.jpg,9,898,z,L,1,590,926,695.6,1031.6,2,7,0,0,0,0,0
32,4,Stimuli\scenes\mainScenes\pexels-get-lost-mike-9993440.jpg,10,1001,/?,R,1,860,678,965.6,783.6,2,21,0,1,7,3,3
32,4,Stimuli\scenes\mainScenes\AdobeStock_214273596.jpeg,11,632,/?,R,1,808,472,913.6,577.6,1,13,0,1,1,1,3
32,4,Stimuli\scenes\mainScenes\AdobeStock_216902241.jpeg,12,1561,/?,R,1,1414,352,1519.6,457.6,3,1,0,0,0,0,0
32,4,Stimuli\scenes\mainScenes\pexels-curtis-adams-4713243.jpg,13,1259,/?,R,1,672,894,777.6,999.6,3,1,0,1,7,4,3
32,4,Stimuli\scenes\mainScenes\pexels-curtis-adams-4258272.jpg,14,829,z,L,1,794,910,899.6,1015.6,3,7,1,0,0,0,0
32,4,Stimuli\scenes\mainScenes\pexels-jean-van-der-meulen-1599791.jpg,15,605,/?,R,1,938,444,1043.6,549.6,1,13,0,0,0,0,0
32,4,Stimuli\scenes\mainScenes\pexels-max-rahubovskiy-6312078.jpg,16,1098,/?,R,1,128,468,233.6,573.6,1,21,1,1,1,1,1
32,4,Stimuli\scenes\mainScenes\pexels-max-rahubovskiy-6980568.jpg,17,1610,z,L,1,1012,942,1117.6,1047.6,2,7,0,1,21,3,1
32,4,Stimuli\scenes\mainScenes\pexels-curtis-adams-3958964.jpg,18,816,z,L,1,990,538,1095.6,643.6,3,1,0,1,7,4,1
32,4,Stimuli\scenes\mainScenes\036_L_filler_absent_bowl.jpg,19,811,z,L,1,430,232,535.6,337.6,1,13,0,0,0,0,0
32,4,Stimuli\scenes\mainScenes\pexels-max-rahubovskiy-6956124.jpg,20,1359,/?,R,1,1148,914,1253.6,1019.6,2,21,0,0,0,0,0
32,4,Stimuli\scenes\mainScenes\pexels-curtis-adams-4469153.jpg,21,1911,/?,R,1,546,392,651.6,497.6,1,1,1,1,21,1,2
32,4,Stimuli\scenes\mainScenes\pexels-sharath-g-4722305.jpg,22,1224,z,L,1,1446,848,1551.6,953.6,3,7,1,0,0,0,0
32,4,Stimuli\scenes\mainScenes\pexels-max-rahubovskiy-7061393.jpg,23,1880,/?,R,1,1562,118,1667.6,223.6,1,13,0,1,21,3,2
32,4,Stimuli\scenes\mainScenes\AdobeStock_41005076.jpeg,24,897,/?,R,1,428,830,533.6,935.6,2,21,0,0,0,0,0
32,4,Stimuli\scenes\mainScenes\pexels-curtis-adams-5008398.jpg,25,670,/?,R,1,900,882,1005.6,987.6,2,7,0,0,0,0,0
32,4,Stimuli\scenes\mainScenes\pexels-max-rahubovskiy-7587482.jpg,26,1210,/?,R,1,438,562,543.6,667.6,3,1,0,1,13,2,1
32,4,Stimuli\scenes\mainScenes\pexels-curtis-adams-4221389.jpg,27,912,z,L,1,474,108,579.6,213.6,1,13,0,0,0,0,0
32,4,Stimuli\scenes\mainScenes\pexels-max-rahubovskiy-7031868.jpg,28,1749,/?,R,1,730,848,835.6,953.6,2,21,0,0,0,0,0
32,4,Stimuli\scenes\mainScenes\pexels-gustavo-galeano-maz-11315956.jpg,29,1002,/?,R,1,180,380,285.6,485.6,1,1,1,1,21,2,2
32,4,Stimuli\scenes\mainScenes\pexels-curtis-adams-8186477.jpg,30,858,z,L,1,246,258,351.6,363.6,1,13,0,1,1,4,2
32,4,Stimuli\scenes\mainScenes\AdobeStock_27579147.jpeg,31,1094,z,L,1,324,816,429.6,921.6,2,7,0,1,21,4,2
32,4,Stimuli\scenes\mainScenes\pexels-get-lost-mike-8504308.jpg,32,1945,z,L,1,1674,314,1779.6,419.6,1,21,1,0,0,0,0
32,4,Stimuli\scenes\mainScenes\pexels-curtis-adams-10827337.jpg,33,809,z,L,1,1026,624,1131.6,729.6,3,1,0,1,13,2,2
32,4,Stimuli\scenes\mainScenes\pexels-ryan-donnelly-100575.jpg,34,1103,z,L,1,198,882,303.6,987.6,2,7,0,1,13,1,3
32,4,Stimuli\scenes\mainScenes\pexels-curtis-adams-5353944.jpg,35,1822,/?,L,0,1550,928,1655.6,1033.6,2,21,0,0,0,0,0
32,4,Stimuli\scenes\mainScenes\pexels-curtis-adams-5900798.jpg,36,3641,/?,R,1,88,190,193.6,295.6,1,13,0,0,0,0,0
32,4,Stimuli\scenes\mainScenes\pexels-loi-bui-trong-17181942.jpg,37,777,z,L,1,918,262,1023.6,367.6,1,13,0,0,0,0,0
32,4,Stimuli\scenes\mainScenes\pexels-alex-qian-2343467.jpg,38,1634,z,L,1,1494,436,1599.6,541.6,1,7,1,0,0,0,0
32,4,Stimuli\scenes\mainScenes\pexels-curtis-adams-15062094.jpg,39,871,z,L,1,1230,578,1335.6,683.6,3,1,0,1,13,3,1
32,4,Stimuli\scenes\mainScenes\pexels-curtis-adams-3935337.jpg,40,1739,/?,R,1,258,566,363.6,671.6,3,21,1,1,13,2,3
32,4,Stimuli\scenes\mainScenes\pexels-gustavo-galeano-maz-8363713.jpg,41,1194,/?,R,1,1120,650,1225.6,755.6,3,1,0,1,21,1,3
32,4,Stimuli\scenes\mainScenes\pexels-denys-gromov-4716789.jpg,42,916,z,L,1,644,898,749.6,1003.6,2,7,0,0,0,0,0
32,4,Stimuli\scenes\mainScenes\pexels-pixabay-534151.jpg,43,1363,z,L,1,1278,696,1383.6,801.6,2,21,0,0,0,0,0
32,4,Stimuli\scenes\mainScenes\pexels-curtis-adams-5900806.jpg,44,1313,/?,R,1,406,310,511.6,415.6,1,13,0,1,1,3,2
32,4,Stimuli\scenes\mainScenes\AdobeStock_479119675.jpeg,45,1401,/?,R,1,1472,158,1577.6,263.6,1,7,1,0,0,0,0
32,4,Stimuli\scenes\mainScenes\041_L_filler_absent_fruit.jpg,46,1540,z,L,1,678,898,783.6,1003.6,2,13,1,1,7,1,3
32,4,Stimuli\scenes\mainScenes\pexels-jean-van-der-meulen-3753437.jpg,47,977,/?,R,1,340,460,445.6,565.6,3,1,0,1,13,4,2
32,4,Stimuli\scenes\mainScenes\pexels-get-lost-mike-10450051.jpg,48,1156,z,L,1,1048,868,1153.6,973.6,2,21,0,0,0,0,0
32,4,Stimuli\scenes\mainScenes\pexels-mark-mccammon-1080721.jpg,49,1315,/?,R,1,160,886,265.6,991.6,2,7,0,0,0,0,0
32,4,Stimuli\scenes\mainScenes\pexels-curtis-adams-15409439.jpg,50,1037,/?,R,1,164,670,269.6,775.6,2,21,0,1,7,1,2
32,4,Stimuli\scenes\mainScenes\pexels-curtis-adams-4839334.jpg,51,833,/?,R,1,472,266,577.6,371.6,1,13,0,1,7,2,2
32,4,Stimuli\scenes\mainScenes\pexels-max-rahubovskiy-7005450.jpg,52,1799,/?,R,1,1520,524,1625.6,629.6,3,1,0,1,7,2,2
32,4,Stimuli\scenes\mainScenes\073_L_filler_absent_coffeemug.jpg,53,1126,/?,R,1,474,290,579.6,395.6,1,7,1,1,21,3,2
32,4,Stimuli\scenes\mainScenes\pexels-skitterphoto-349749.jpg,54,1264,z,L,1,1704,598,1809.6,703.6,3,13,1,0,0,0,0
32,4,Stimuli\scenes\mainScenes\pexels-curtis-adams-3990599.jpg,55,1230,z,R,0,384,404,489.6,509.6,3,1,0,0,0,0,0
32,4,Stimuli\scenes\mainScenes\pexels-curtis-adams-4682110.jpg,56,1113,/?,R,1,322,898,427.6,1003.6,2,21,0,0,0,0,0
32,4,Stimuli\scenes\mainScenes\pexels-curtis-adams-5502217.jpg,57,1026,/?,R,1,1480,828,1585.6,933.6,3,1,0,1,13,1,1
32,4,Stimuli\scenes\mainScenes\pexels-curtis-adams-7027784.jpg,58,6401,/?,R,1,1608,920,1713.6,1025.6,2,7,0,1,21,4,1
32,4,Stimuli\scenes\mainScenes\pexels-curtis-adams-4469155.jpg,59,1287,z,L,1,468,534,573.6,639.6,3,21,1,1,1,2,2
32,4,Stimuli\scenes\mainScenes\pexels-level-media-3016430.jpg,60,935,/?,R,1,1628,362,1733.6,467.6,1,13,0,1,21,2,3
