sub_num,run_num,file_name,trial_num,rt,response,t_direction,accuracy,target_position_1,target_position_2,target_position_3,target_position_4,target_location_type,target_number,trialTypeValid0Invalid1,trialTypeExtraTarget1NoExtraTarget0,extraTargetShapeNumber,extraTargetShapePosition,extraTargetShapeType
5,4,Stimuli\scenes\mainScenes\pexels-curtis-adams-3958964.jpg,1,1559,/?,R,1,182,880,287.6,985.6,2,19,0,0,0,0,0
5,4,Stimuli\scenes\mainScenes\080_L_filler_absent_plant.jpg,2,1293,z,L,1,158,514,263.6,619.6,3,1,0,1,15,3,1
5,4,Stimuli\scenes\mainScenes\pexels-skitterphoto-349749.jpg,3,1259,/?,R,1,158,340,263.6,445.6,1,5,0,0,0,0,0
5,4,Stimuli\scenes\mainScenes\pexels-curtis-adams-7027786.jpg,4,1044,z,L,1,1174,922,1279.6,1027.6,2,15,1,0,0,0,0
5,4,Stimuli\scenes\mainScenes\AdobeStock_106076039.jpeg,5,1778,z,L,1,1658,480,1763.6,585.6,3,1,0,1,19,4,2
5,4,Stimuli\scenes\mainScenes\pexels-terry-magallanes-3623785.jpg,6,1038,z,L,1,1070,902,1175.6,1007.6,2,19,0,1,5,3,1
5,4,Stimuli\scenes\mainScenes\pexels-get-lost-mike-8561916.jpg,7,2428,/?,R,1,1666,914,1771.6,1019.6,2,15,1,1,5,1,3
5,4,Stimuli\scenes\mainScenes\pexels-max-rahubovskiy-7060815.jpg,8,1803,/?,R,1,1028,176,1133.6,281.6,1,5,0,0,0,0,0
5,4,Stimuli\scenes\mainScenes\pexels-get-lost-mike-9993440.jpg,9,1508,z,L,1,254,594,359.6,699.6,1,5,0,1,15,4,2
5,4,Stimuli\scenes\mainScenes\pexels-curtis-adams-5008398.jpg,10,1018,/?,R,1,900,882,1005.6,987.6,2,19,0,0,0,0,0
5,4,Stimuli\scenes\mainScenes\pexels-loi-bui-trong-17181942.jpg,11,1681,z,L,1,246,670,351.6,775.6,3,1,0,1,5,2,1
5,4,Stimuli\scenes\mainScenes\pexels-curtis-adams-4221389.jpg,12,1014,/?,R,1,474,754,579.6,859.6,3,15,0,0,0,0,0
5,4,Stimuli\scenes\mainScenes\pexels-curtis-adams-7601072.jpg,13,1326,z,L,1,1400,248,1505.6,353.6,1,5,0,0,0,0,0
5,4,Stimuli\scenes\mainScenes\pexels-mark-mccammon-2724749.jpg,14,1153,z,L,1,168,648,273.6,753.6,3,19,1,1,5,3,3
5,4,Stimuli\scenes\mainScenes\pexels-curtis-adams-7028072.jpg,15,1458,z,L,1,1610,792,1715.6,897.6,3,1,0,1,19,2,3
5,4,Stimuli\scenes\mainScenes\pexels-ryan-donnelly-100575.jpg,16,2637,/?,R,1,1428,382,1533.6,487.6,1,15,1,0,0,0,0
5,4,Stimuli\scenes\mainScenes\pexels-curtis-adams-3773573.jpg,17,1500,/?,R,1,280,684,385.6,789.6,3,1,0,1,19,4,1
5,4,Stimuli\scenes\mainScenes\pexels-curtis-adams-15062094.jpg,18,1610,z,L,1,1714,528,1819.6,633.6,1,5,0,0,0,0,0
5,4,Stimuli\scenes\mainScenes\pexels-max-rahubovskiy-6980568.jpg,19,1497,/?,R,1,1260,120,1365.6,225.6,1,19,1,1,15,2,2
5,4,Stimuli\scenes\mainScenes\pexels-curtis-adams-4713243.jpg,20,1500,/?,R,1,1760,736,1865.6,841.6,3,15,0,1,19,3,2
5,4,Stimuli\scenes\mainScenes\pexels-loi-bui-trong-17158648.jpg,21,1057,z,L,1,262,222,367.6,327.6,1,1,1,0,0,0,0
5,4,Stimuli\scenes\mainScenes\pexels-pixabay-271647.jpg,22,2046,/?,R,1,1320,526,1425.6,631.6,3,15,0,0,0,0,0
5,4,Stimuli\scenes\mainScenes\pexels-curtis-adams-4469153.jpg,23,924,/?,R,1,546,392,651.6,497.6,1,5,0,0,0,0,0
5,4,Stimuli\scenes\mainScenes\pexels-curtis-adams-5353944.jpg,24,1016,z,L,1,1550,928,1655.6,1033.6,2,19,0,1,15,2,3
5,4,Stimuli\scenes\mainScenes\pexels-max-rahubovskiy-7005450.jpg,25,822,z,L,1,656,470,761.6,575.6,1,5,0,1,1,3,3
5,4,Stimuli\scenes\mainScenes\pexels-sharath-g-4722305.jpg,26,1034,/?,R,1,422,960,527.6,1065.6,2,19,0,1,5,1,3
5,4,Stimuli\scenes\mainScenes\pexels-curtis-adams-7027852.jpg,27,1441,z,L,1,1180,380,1285.6,485.6,1,1,1,0,0,0,0
5,4,Stimuli\scenes\mainScenes\pexels-jean-van-der-meulen-1599791.jpg,28,902,/?,R,1,608,528,713.6,633.6,3,15,0,0,0,0,0
5,4,Stimuli\scenes\mainScenes\pexels-curtis-adams-10827337.jpg,29,979,/?,R,1,1026,624,1131.6,729.6,3,1,0,0,0,0,0
5,4,Stimuli\scenes\mainScenes\pexels-max-rahubovskiy-6969864.jpg,30,2403,/?,R,1,334,508,439.6,613.6,3,15,0,0,0,0,0
5,4,Stimuli\scenes\mainScenes\pexels-curtis-adams-4258272.jpg,31,987,z,L,1,794,910,899.6,1015.6,3,19,1,1,15,2,2
5,4,Stimuli\scenes\mainScenes\pexels-curtis-adams-6835079.jpg,32,828,/?,R,1,508,344,613.6,449.6,1,5,0,1,1,3,3
5,4,Stimuli\scenes\mainScenes\pexels-curtis-adams-4713242.jpg,33,839,/?,R,1,1282,618,1387.6,723.6,3,19,1,0,0,0,0
5,4,Stimuli\scenes\mainScenes\pexels-max-rahubovskiy-7061393.jpg,34,1477,z,L,1,1602,844,1707.6,949.6,3,5,1,1,15,4,3
5,4,Stimuli\scenes\mainScenes\pexels-curtis-adams-7027760.jpg,35,986,z,L,1,562,838,667.6,943.6,3,1,0,0,0,0,0
5,4,Stimuli\scenes\mainScenes\022_L_filler_absent_lamp.jpg,36,916,/?,R,1,1278,626,1383.6,731.6,3,15,0,0,0,0,0
5,4,Stimuli\scenes\mainScenes\pexels-max-rahubovskiy-7214338.jpg,37,654,z,L,1,730,454,835.6,559.6,1,5,0,1,1,4,2
5,4,Stimuli\scenes\mainScenes\AdobeStock_41005076.jpeg,38,1525,z,L,1,1530,528,1635.6,633.6,3,1,0,1,15,2,1
5,4,Stimuli\scenes\mainScenes\pexels-curtis-adams-5502217.jpg,39,1160,z,L,1,110,724,215.6,829.6,2,19,0,0,0,0,0
5,4,Stimuli\scenes\mainScenes\pexels-curtis-adams-4469155.jpg,40,1601,z,L,1,468,534,573.6,639.6,3,15,0,1,19,1,1
5,4,Stimuli\scenes\mainScenes\pexels-curtis-adams-3990599.jpg,41,2032,z,L,1,864,72,969.6,177.6,1,5,0,0,0,0,0
5,4,Stimuli\scenes\mainScenes\AdobeStock_461935168.jpeg,42,735,z,L,1,806,602,911.6,707.6,2,19,0,1,1,3,3
5,4,Stimuli\scenes\mainScenes\AdobeStock_196997973.jpeg,43,1001,z,L,1,1136,116,1241.6,221.6,1,1,1,1,15,3,3
5,4,Stimuli\scenes\mainScenes\pexels-gustavo-galeano-maz-8363713.jpg,44,1081,z,L,1,604,550,709.6,655.6,3,15,0,1,5,2,2
5,4,Stimuli\scenes\mainScenes\pexels-max-rahubovskiy-6956124.jpg,45,1212,z,L,1,1402,610,1507.6,715.6,3,1,0,0,0,0,0
5,4,Stimuli\scenes\mainScenes\pexels-max-rahubovskiy-6956843.jpg,46,899,z,L,1,508,888,613.6,993.6,2,19,0,0,0,0,0
5,4,Stimuli\scenes\mainScenes\pexels-max-rahubovskiy-7587482.jpg,47,1191,/?,R,1,1240,916,1345.6,1021.6,2,5,1,0,0,0,0
5,4,Stimuli\scenes\mainScenes\pexels-curtis-adams-7027784.jpg,48,1079,z,L,1,254,730,359.6,835.6,3,15,0,1,1,1,1
5,4,Stimuli\scenes\mainScenes\pexels-level-media-3016430.jpg,49,1088,z,L,1,1628,362,1733.6,467.6,1,5,0,0,0,0,0
5,4,Stimuli\scenes\mainScenes\pexels-curtis-adams-8583875.jpg,50,737,z,L,1,766,578,871.6,683.6,3,1,0,1,19,3,1
5,4,Stimuli\scenes\mainScenes\pexels-keegan-checks-10117731.jpg,51,873,z,L,1,638,334,743.6,439.6,1,15,1,1,5,4,3
5,4,Stimuli\scenes\mainScenes\AdobeStock_214273596.jpeg,52,678,z,L,1,828,668,933.6,773.6,2,19,0,0,0,0,0
5,4,Stimuli\scenes\mainScenes\pexels-curtis-adams-8583892.jpg,53,898,z,L,1,1504,622,1609.6,727.6,3,1,0,1,19,2,2
5,4,Stimuli\scenes\mainScenes\pexels-curtis-adams-3935337.jpg,54,959,/?,R,1,948,188,1053.6,293.6,1,15,1,0,0,0,0
5,4,Stimuli\scenes\mainScenes\pexels-curtis-adams-5008407.jpg,55,920,/?,R,1,774,192,879.6,297.6,1,5,0,1,19,2,2
5,4,Stimuli\scenes\mainScenes\pexels-saviesa-home-2089698.jpg,56,1031,z,L,1,476,820,581.6,925.6,2,19,0,0,0,0,0
5,4,Stimuli\scenes\mainScenes\pexels-get-lost-mike-10450051.jpg,57,990,/?,R,1,1324,212,1429.6,317.6,1,5,0,1,15,1,3
5,4,Stimuli\scenes\mainScenes\pexels-jean-van-der-meulen-3753437.jpg,58,1664,/?,R,1,936,902,1041.6,1007.6,2,1,1,0,0,0,0
5,4,Stimuli\scenes\mainScenes\pexels-max-rahubovskiy-7031868.jpg,59,1629,/?,R,1,108,660,213.6,765.6,3,15,0,1,5,2,2
5,4,Stimuli\scenes\mainScenes\AdobeStock_479119675.jpeg,60,974,z,L,1,606,898,711.6,1003.6,2,19,0,1,5,1,1
