sub_num,run_num,file_name,trial_num,rt,response,t_direction,accuracy,target_position_1,target_position_2,target_position_3,target_position_4,target_location_type,target_number,trialTypeValid0Invalid1,trialTypeExtraTarget1NoExtraTarget0,extraTargetShapeNumber,extraTargetShapePosition,extraTargetShapeType
50,6,Stimuli\scenes\mainScenes\pexels-jean-van-der-meulen-1599791.jpg,1,891,z,L,1,1128,738,1233.6,843.6,3,22,1,0,0,0,0
50,6,Stimuli\scenes\mainScenes\pexels-curtis-adams-4800177.jpg,2,870,/?,R,1,360,678,465.6,783.6,2,18,1,1,22,1,3
50,6,Stimuli\scenes\mainScenes\pexels-curtis-adams-7027852.jpg,3,733,/?,L,0,1370,572,1475.6,677.6,2,11,0,1,22,1,3
50,6,Stimuli\scenes\mainScenes\pexels-curtis-adams-4221389.jpg,4,1701,z,L,1,1714,630,1819.6,735.6,3,10,0,0,0,0,0
50,6,Stimuli\scenes\mainScenes\pexels-max-rahubovskiy-6312077.jpg,5,695,z,R,0,488,900,593.6,1005.6,2,22,0,1,11,3,1
50,6,Stimuli\scenes\mainScenes\pexels-curtis-adams-4682110.jpg,6,996,z,L,1,322,898,427.6,1003.6,2,11,0,0,0,0,0
50,6,Stimuli\scenes\mainScenes\pexels-gustavo-galeano-maz-11315956.jpg,7,820,/?,R,1,1394,522,1499.6,627.6,3,10,0,0,0,0,0
50,6,Stimuli\scenes\mainScenes\pexels-curtis-adams-5900806.jpg,8,841,/?,R,1,406,310,511.6,415.6,1,18,0,1,11,2,3
50,6,Stimuli\scenes\mainScenes\pexels-curtis-adams-4839334.jpg,9,1000,/?,R,1,1398,496,1503.6,601.6,3,10,0,0,0,0,0
50,6,Stimuli\scenes\mainScenes\pexels-alexander-zvir-4252510.jpg,10,2368,z,L,1,1230,912,1335.6,1017.6,2,22,0,1,11,1,3
50,6,Stimuli\scenes\mainScenes\pexels-curtis-adams-7027760.jpg,11,708,/?,L,0,1500,922,1605.6,1027.6,2,11,0,0,0,0,0
50,6,Stimuli\scenes\mainScenes\pexels-ryan-donnelly-100575.jpg,12,880,z,L,1,838,534,943.6,639.6,3,18,1,0,0,0,0
50,6,Stimuli\scenes\mainScenes\pexels-loi-bui-trong-17181942.jpg,13,797,/?,R,1,1450,646,1555.6,751.6,3,10,0,1,18,4,2
50,6,Stimuli\scenes\mainScenes\pexels-curtis-adams-7027786.jpg,14,1244,/?,R,1,290,744,395.6,849.6,3,22,1,1,11,4,1
50,6,Stimuli\scenes\mainScenes\pexels-max-rahubovskiy-6969864.jpg,15,1805,/?,R,1,1630,966,1735.6,1071.6,2,11,0,1,22,4,3
50,6,Stimuli\scenes\mainScenes\pexels-curtis-adams-4469153.jpg,16,2386,/?,R,1,546,392,651.6,497.6,1,18,0,0,0,0,0
50,6,Stimuli\scenes\mainScenes\041_L_filler_absent_fruit.jpg,17,915,/?,R,1,374,744,479.6,849.6,3,10,0,1,11,1,3
50,6,Stimuli\scenes\mainScenes\pexels-gustavo-galeano-maz-8363713.jpg,18,995,/?,R,1,1024,560,1129.6,665.6,1,18,0,0,0,0,0
50,6,Stimuli\scenes\mainScenes\pexels-max-rahubovskiy-6489116.jpg,19,1204,z,L,1,214,912,319.6,1017.6,2,22,0,0,0,0,0
50,6,Stimuli\scenes\mainScenes\pexels-curtis-adams-4713242.jpg,20,1678,z,L,1,1282,618,1387.6,723.6,3,11,1,1,10,1,2
50,6,Stimuli\scenes\mainScenes\pexels-get-lost-mike-8504308.jpg,21,876,/?,R,1,360,946,465.6,1051.6,2,22,0,1,10,3,1
50,6,Stimuli\scenes\mainScenes\AdobeStock_106076039.jpeg,22,786,z,L,1,478,694,583.6,799.6,3,10,0,0,0,0,0
50,6,Stimuli\scenes\mainScenes\pexels-saviesa-home-2089698.jpg,23,946,/?,R,1,712,328,817.6,433.6,1,18,0,1,22,2,3
50,6,Stimuli\scenes\mainScenes\pexels-curtis-adams-5900798.jpg,24,1169,z,L,1,766,490,871.6,595.6,3,11,1,0,0,0,0
50,6,Stimuli\scenes\mainScenes\pexels-max-rahubovskiy-6956124.jpg,25,783,z,L,1,594,282,699.6,387.6,1,18,0,0,0,0,0
50,6,Stimuli\scenes\mainScenes\AdobeStock_216902237.jpeg,26,758,z,L,1,338,476,443.6,581.6,3,10,0,0,0,0,0
50,6,Stimuli\scenes\mainScenes\AdobeStock_216902241.jpeg,27,852,z,L,1,584,832,689.6,937.6,2,22,0,1,18,1,3
50,6,Stimuli\scenes\mainScenes\pexels-max-rahubovskiy-7061668.jpg,28,1111,z,L,1,44,420,149.6,525.6,1,11,1,1,10,1,2
50,6,Stimuli\scenes\mainScenes\pexels-max-rahubovskiy-7061393.jpg,29,1420,z,L,1,1602,844,1707.6,949.6,3,10,0,0,0,0,0
50,6,Stimuli\scenes\mainScenes\pexels-curtis-adams-8186477.jpg,30,1791,z,L,1,1062,608,1167.6,713.6,3,22,1,0,0,0,0
50,6,Stimuli\scenes\mainScenes\pexels-loi-bui-trong-17158669.jpg,31,830,z,L,1,1248,430,1353.6,535.6,1,18,0,1,22,1,3
50,6,Stimuli\scenes\mainScenes\pexels-curtis-adams-3773573.jpg,32,1333,/?,L,0,986,920,1091.6,1025.6,2,11,0,1,10,2,1
50,6,Stimuli\scenes\mainScenes\pexels-curtis-adams-4713243.jpg,33,767,z,L,1,1158,608,1263.6,713.6,1,22,1,0,0,0,0
50,6,Stimuli\scenes\mainScenes\AdobeStock_41005076.jpeg,34,848,z,L,1,428,830,533.6,935.6,2,11,0,1,22,1,3
50,6,Stimuli\scenes\mainScenes\pexels-curtis-adams-15062099.jpg,35,583,z,L,1,538,582,643.6,687.6,3,10,0,0,0,0,0
50,6,Stimuli\scenes\mainScenes\pexels-curtis-adams-8583892.jpg,36,1222,/?,R,1,198,236,303.6,341.6,1,18,0,0,0,0,0
50,6,Stimuli\scenes\mainScenes\pexels-get-lost-mike-9993440.jpg,37,1166,/?,R,1,254,594,359.6,699.6,1,18,0,1,22,1,3
50,6,Stimuli\scenes\mainScenes\pexels-pixabay-271647.jpg,38,1392,/?,L,0,1320,526,1425.6,631.6,3,22,1,1,11,4,1
50,6,Stimuli\scenes\mainScenes\pexels-max-rahubovskiy-7587482.jpg,39,1582,z,L,1,1396,536,1501.6,641.6,3,10,0,0,0,0,0
50,6,Stimuli\scenes\mainScenes\pexels-curtis-adams-15062094.jpg,40,2579,z,R,0,340,892,445.6,997.6,2,11,0,1,10,1,1
50,6,Stimuli\scenes\mainScenes\AdobeStock_196997973.jpeg,41,1458,z,L,1,1506,552,1611.6,657.6,3,10,0,0,0,0,0
50,6,Stimuli\scenes\mainScenes\pexels-max-rahubovskiy-7018399.jpg,42,1126,/?,R,1,1292,936,1397.6,1041.6,2,22,0,0,0,0,0
50,6,Stimuli\scenes\mainScenes\pexels-curtis-adams-5008398.jpg,43,939,/?,R,1,138,84,243.6,189.6,1,18,0,1,10,3,2
50,6,Stimuli\scenes\mainScenes\pexels-terry-magallanes-3623785.jpg,44,1119,/?,R,1,1070,902,1175.6,1007.6,2,11,0,1,10,4,3
50,6,Stimuli\scenes\mainScenes\pexels-curtis-adams-5008407.jpg,45,1604,z,L,1,1574,770,1679.6,875.6,3,10,0,0,0,0,0
50,6,Stimuli\scenes\mainScenes\pexels-curtis-adams-8031902.jpg,46,1342,/?,R,1,308,188,413.6,293.6,1,22,1,0,0,0,0
50,6,Stimuli\scenes\mainScenes\pexels-curtis-adams-4119833.jpg,47,1119,z,L,1,1136,200,1241.6,305.6,1,18,0,1,11,2,3
50,6,Stimuli\scenes\mainScenes\080_L_filler_absent_plant.jpg,48,1068,z,L,1,158,514,263.6,619.6,3,11,1,1,22,1,3
50,6,Stimuli\scenes\mainScenes\022_L_filler_absent_lamp.jpg,49,1355,/?,R,1,164,876,269.6,981.6,2,22,0,1,11,2,3
50,6,Stimuli\scenes\mainScenes\pexels-curtis-adams-7028072.jpg,50,1110,/?,R,1,950,842,1055.6,947.6,2,11,0,0,0,0,0
50,6,Stimuli\scenes\mainScenes\pexels-max-rahubovskiy-6312077.jpg,51,1615,/?,R,1,488,900,593.6,1005.6,2,18,1,0,0,0,0
50,6,Stimuli\scenes\mainScenes\pexels-pixabay-534151.jpg,52,981,/?,R,1,142,204,247.6,309.6,1,10,1,1,22,4,3
50,6,Stimuli\scenes\mainScenes\pexels-loi-bui-trong-17158669.jpg,53,717,/?,L,0,304,746,409.6,851.6,2,22,0,0,0,0,0
50,6,Stimuli\scenes\mainScenes\pexels-curtis-adams-8583892.jpg,54,1078,z,L,1,878,892,983.6,997.6,2,11,0,1,18,1,3
50,6,Stimuli\scenes\mainScenes\pexels-max-rahubovskiy-7018399.jpg,55,1450,z,L,1,1618,78,1723.6,183.6,1,18,0,0,0,0,0
50,6,Stimuli\scenes\mainScenes\pexels-curtis-adams-4713243.jpg,56,1577,z,L,1,672,894,777.6,999.6,3,10,0,1,22,2,1
50,6,Stimuli\scenes\mainScenes\pexels-curtis-adams-5502217.jpg,57,1633,/?,L,0,1480,828,1585.6,933.6,3,10,0,1,11,1,1
50,6,Stimuli\scenes\mainScenes\pexels-curtis-adams-4800177.jpg,58,1683,z,L,1,386,140,491.6,245.6,1,18,0,0,0,0,0
50,6,Stimuli\scenes\mainScenes\pexels-sharath-g-4722305.jpg,59,1307,z,L,1,1446,848,1551.6,953.6,3,22,1,1,11,4,2
50,6,Stimuli\scenes\mainScenes\pexels-loi-bui-trong-17181942.jpg,60,1235,/?,R,1,576,920,681.6,1025.6,2,11,0,1,18,1,3
