sub_num,run_num,file_name,trial_num,rt,response,t_direction,accuracy,target_position_1,target_position_2,target_position_3,target_position_4,target_location_type,target_number,trialTypeValid0Invalid1,trialTypeExtraTarget1NoExtraTarget0,extraTargetShapeNumber,extraTargetShapePosition,extraTargetShapeType
48,2,Stimuli\scenes\mainScenes\036_L_filler_absent_bowl.jpg,1,1130,z,L,1,342,854,447.6,959.6,2,2,0,1,13,2,1
48,2,Stimuli\scenes\mainScenes\AdobeStock_196997973.jpeg,2,1333,z,L,1,442,936,547.6,1041.6,2,12,0,1,2,3,3
48,2,Stimuli\scenes\mainScenes\pexels-curtis-adams-4469155.jpg,3,1772,z,L,1,1694,482,1799.6,587.6,1,13,0,0,0,0,0
48,2,Stimuli\scenes\mainScenes\pexels-curtis-adams-8186477.jpg,4,1213,/?,R,1,246,258,351.6,363.6,1,5,1,1,13,3,3
48,2,Stimuli\scenes\mainScenes\pexels-max-rahubovskiy-6956124.jpg,5,1352,/?,R,1,430,890,535.6,995.6,3,5,0,0,0,0,0
48,2,Stimuli\scenes\mainScenes\pexels-jean-van-der-meulen-3753437.jpg,6,1383,z,L,1,1088,218,1193.6,323.6,1,2,1,0,0,0,0
48,2,Stimuli\scenes\mainScenes\pexels-max-rahubovskiy-7061393.jpg,7,1885,z,L,1,982,884,1087.6,989.6,2,12,0,0,0,0,0
48,2,Stimuli\scenes\mainScenes\pexels-curtis-adams-4221389.jpg,8,1169,z,L,1,474,108,579.6,213.6,1,13,0,1,5,3,3
48,2,Stimuli\scenes\mainScenes\pexels-curtis-adams-5008398.jpg,9,1411,z,L,1,138,84,243.6,189.6,1,2,1,1,12,3,2
48,2,Stimuli\scenes\mainScenes\pexels-loi-bui-trong-17181942.jpg,10,875,z,L,1,918,262,1023.6,367.6,1,13,0,0,0,0,0
48,2,Stimuli\scenes\mainScenes\pexels-curtis-adams-7601172.jpg,11,1275,z,L,1,1612,834,1717.6,939.6,2,12,0,1,2,3,1
48,2,Stimuli\scenes\mainScenes\pexels-curtis-adams-10827398.jpg,12,1257,z,L,1,1572,662,1677.6,767.6,3,5,0,0,0,0,0
48,2,Stimuli\scenes\mainScenes\pexels-max-rahubovskiy-6956843.jpg,13,1479,z,L,1,568,508,673.6,613.6,3,5,0,1,2,2,2
48,2,Stimuli\scenes\mainScenes\pexels-mark-mccammon-1080721.jpg,14,1294,z,L,1,1060,772,1165.6,877.6,3,2,1,0,0,0,0
48,2,Stimuli\scenes\mainScenes\pexels-max-rahubovskiy-6782481.jpg,15,1228,z,L,1,1028,938,1133.6,1043.6,2,12,0,1,2,2,3
48,2,Stimuli\scenes\mainScenes\pexels-curtis-adams-7027760.jpg,16,1003,z,L,1,74,374,179.6,479.6,1,13,0,0,0,0,0
48,2,Stimuli\scenes\mainScenes\pexels-saviesa-home-2089698.jpg,17,1282,/?,R,1,534,446,639.6,551.6,3,5,0,1,13,4,2
48,2,Stimuli\scenes\mainScenes\pexels-curtis-adams-4713243.jpg,18,1067,/?,R,1,1354,888,1459.6,993.6,2,2,0,1,13,4,3
48,2,Stimuli\scenes\mainScenes\pexels-keegan-checks-10117731.jpg,19,1321,z,L,1,1154,932,1259.6,1037.6,2,12,0,0,0,0,0
48,2,Stimuli\scenes\mainScenes\pexels-curtis-adams-4119833.jpg,20,867,/?,R,1,1136,200,1241.6,305.6,1,13,0,0,0,0,0
48,2,Stimuli\scenes\mainScenes\pexels-curtis-adams-15409439.jpg,21,1398,/?,R,1,1566,192,1671.6,297.6,1,2,1,0,0,0,0
48,2,Stimuli\scenes\mainScenes\pexels-curtis-adams-8583892.jpg,22,2063,/?,R,1,1504,622,1609.6,727.6,3,5,0,0,0,0,0
48,2,Stimuli\scenes\mainScenes\pexels-curtis-adams-8031902.jpg,23,1146,z,L,1,716,780,821.6,885.6,2,12,0,1,13,2,3
48,2,Stimuli\scenes\mainScenes\pexels-curtis-adams-6835079.jpg,24,1563,/?,L,0,1656,510,1761.6,615.6,3,13,1,1,5,4,1
48,2,Stimuli\scenes\mainScenes\pexels-pixabay-534151.jpg,25,1221,/?,R,1,1278,696,1383.6,801.6,2,2,0,1,12,3,1
48,2,Stimuli\scenes\mainScenes\AdobeStock_106076039.jpeg,26,1093,/?,R,1,478,694,583.6,799.6,3,13,1,0,0,0,0
48,2,Stimuli\scenes\mainScenes\pexels-curtis-adams-4713242.jpg,27,896,/?,R,1,1282,618,1387.6,723.6,3,5,0,0,0,0,0
48,2,Stimuli\scenes\mainScenes\pexels-curtis-adams-4469153.jpg,28,1069,/?,R,1,964,542,1069.6,647.6,2,12,0,0,0,0,0
48,2,Stimuli\scenes\mainScenes\pexels-alex-qian-2343467.jpg,29,1788,/?,R,1,1494,436,1599.6,541.6,1,13,0,0,0,0,0
48,2,Stimuli\scenes\mainScenes\pexels-max-rahubovskiy-6980568.jpg,30,1964,z,L,1,1012,942,1117.6,1047.6,2,2,0,1,5,1,3
48,2,Stimuli\scenes\mainScenes\pexels-curtis-adams-5008407.jpg,31,1042,z,L,1,474,946,579.6,1051.6,2,5,1,1,2,4,1
48,2,Stimuli\scenes\mainScenes\pexels-curtis-adams-5353944.jpg,32,1208,z,L,1,1550,928,1655.6,1033.6,2,12,0,1,13,4,1
48,2,Stimuli\scenes\mainScenes\pexels-max-rahubovskiy-6312078.jpg,33,840,/?,R,1,840,302,945.6,407.6,1,13,0,1,5,2,2
48,2,Stimuli\scenes\mainScenes\AdobeStock_461935168.jpeg,34,1302,/?,R,1,462,566,567.6,671.6,3,2,1,0,0,0,0
48,2,Stimuli\scenes\mainScenes\pexels-max-rahubovskiy-7061668.jpg,35,2184,z,L,1,1488,510,1593.6,615.6,3,5,0,0,0,0,0
48,2,Stimuli\scenes\mainScenes\AdobeStock_216902241.jpeg,36,1131,z,L,1,584,832,689.6,937.6,2,12,0,1,13,4,3
48,2,Stimuli\scenes\mainScenes\080_L_filler_absent_plant.jpg,37,1390,/?,R,1,478,904,583.6,1009.6,2,2,0,0,0,0,0
48,2,Stimuli\scenes\mainScenes\pexels-curtis-adams-7027784.jpg,38,1618,z,L,1,1608,920,1713.6,1025.6,2,12,0,1,2,3,3
48,2,Stimuli\scenes\mainScenes\pexels-curtis-adams-4682110.jpg,39,1802,z,L,1,532,204,637.6,309.6,1,13,0,0,0,0,0
48,2,Stimuli\scenes\mainScenes\pexels-max-rahubovskiy-8082201.jpg,40,1098,/?,R,1,34,900,139.6,1005.6,2,5,1,1,12,3,3
48,2,Stimuli\scenes\mainScenes\pexels-loi-bui-trong-17158648.jpg,41,1150,z,L,1,262,222,367.6,327.6,1,13,0,0,0,0,0
48,2,Stimuli\scenes\mainScenes\pexels-max-rahubovskiy-6312077.jpg,42,1134,z,L,1,1548,448,1653.6,553.6,1,5,1,1,2,1,3
48,2,Stimuli\scenes\mainScenes\pexels-max-rahubovskiy-7005450.jpg,43,1068,z,L,1,1034,802,1139.6,907.6,2,2,0,1,5,4,1
48,2,Stimuli\scenes\mainScenes\pexels-curtis-adams-7027786.jpg,44,1215,/?,R,1,290,744,395.6,849.6,3,12,1,0,0,0,0
48,2,Stimuli\scenes\mainScenes\pexels-jean-van-der-meulen-1599791.jpg,45,986,z,L,1,938,444,1043.6,549.6,1,13,0,0,0,0,0
48,2,Stimuli\scenes\mainScenes\pexels-max-rahubovskiy-6969864.jpg,46,1779,z,L,1,1630,966,1735.6,1071.6,2,2,0,1,12,4,3
48,2,Stimuli\scenes\mainScenes\pexels-curtis-adams-3935337.jpg,47,761,z,L,1,998,672,1103.6,777.6,2,12,0,0,0,0,0
48,2,Stimuli\scenes\mainScenes\pexels-mark-mccammon-2724749.jpg,48,1282,z,L,1,168,648,273.6,753.6,3,5,0,1,13,4,1
48,2,Stimuli\scenes\mainScenes\pexels-sharath-g-4722305.jpg,49,1038,/?,R,1,422,960,527.6,1065.6,2,2,0,1,5,1,3
48,2,Stimuli\scenes\mainScenes\pexels-get-lost-mike-8504308.jpg,50,1405,z,L,1,1674,314,1779.6,419.6,1,12,1,1,2,4,2
48,2,Stimuli\scenes\mainScenes\pexels-level-media-3016430.jpg,51,1366,/?,R,1,308,566,413.6,671.6,3,13,1,0,0,0,0
48,2,Stimuli\scenes\mainScenes\pexels-denys-gromov-4716789.jpg,52,953,/?,R,1,316,486,421.6,591.6,3,5,0,0,0,0,0
48,2,Stimuli\scenes\mainScenes\073_L_filler_absent_coffeemug.jpg,53,739,/?,R,1,616,604,721.6,709.6,3,5,0,0,0,0,0
48,2,Stimuli\scenes\mainScenes\pexels-max-rahubovskiy-7587482.jpg,54,973,/?,R,1,664,282,769.6,387.6,1,13,0,1,12,3,2
48,2,Stimuli\scenes\mainScenes\pexels-max-rahubovskiy-7060815.jpg,55,1341,/?,R,1,1692,930,1797.6,1035.6,2,2,0,0,0,0,0
48,2,Stimuli\scenes\mainScenes\pexels-loi-bui-trong-17158669.jpg,56,2838,z,L,1,304,746,409.6,851.6,2,12,0,1,5,1,3
48,2,Stimuli\scenes\mainScenes\pexels-gustavo-galeano-maz-8363713.jpg,57,1001,z,L,1,1024,560,1129.6,665.6,1,13,0,1,2,1,3
48,2,Stimuli\scenes\mainScenes\pexels-ryan-donnelly-100575.jpg,58,896,z,L,1,838,534,943.6,639.6,3,5,0,0,0,0,0
48,2,Stimuli\scenes\mainScenes\pexels-gustavo-galeano-maz-11315956.jpg,59,773,z,L,1,914,950,1019.6,1055.6,2,2,0,0,0,0,0
48,2,Stimuli\scenes\mainScenes\pexels-curtis-adams-8583875.jpg,60,1007,z,L,1,368,96,473.6,201.6,1,12,1,0,0,0,0
