sub_num,run_num,file_name,trial_num,rt,response,t_direction,accuracy,target_position_1,target_position_2,target_position_3,target_position_4,target_location_type,target_number,trialTypeValid0Invalid1,trialTypeExtraTarget1NoExtraTarget0,extraTargetShapeNumber,extraTargetShapePosition,extraTargetShapeType
45,4,Stimuli\scenes\mainScenes\pexels-saviesa-home-2089698.jpg,1,779,z,L,1,712,328,817.6,433.6,1,10,0,1,14,4,2
45,4,Stimuli\scenes\mainScenes\pexels-curtis-adams-7601072.jpg,2,882,z,L,1,1400,248,1505.6,353.6,1,6,1,0,0,0,0
45,4,Stimuli\scenes\mainScenes\pexels-pixabay-271647.jpg,3,1259,/?,R,1,1320,526,1425.6,631.6,3,12,0,0,0,0,0
45,4,Stimuli\scenes\mainScenes\pexels-max-rahubovskiy-6312077.jpg,4,585,/?,R,1,682,552,787.6,657.6,3,14,1,1,6,2,2
45,4,Stimuli\scenes\mainScenes\pexels-denys-gromov-4716789.jpg,5,1057,z,L,1,316,486,421.6,591.6,3,6,0,0,0,0,0
45,4,Stimuli\scenes\mainScenes\pexels-curtis-adams-4713242.jpg,6,591,/?,R,1,662,442,767.6,547.6,1,10,0,0,0,0,0
45,4,Stimuli\scenes\mainScenes\022_L_filler_absent_lamp.jpg,7,885,/?,R,1,1278,626,1383.6,731.6,3,12,0,1,10,1,1
45,4,Stimuli\scenes\mainScenes\pexels-curtis-adams-10827398.jpg,8,1042,/?,R,1,616,812,721.6,917.6,2,14,0,1,6,1,3
45,4,Stimuli\scenes\mainScenes\AdobeStock_106076039.jpeg,9,1027,z,L,1,1440,772,1545.6,877.6,2,14,0,0,0,0,0
45,4,Stimuli\scenes\mainScenes\pexels-terry-magallanes-3623785.jpg,10,1392,/?,R,1,350,642,455.6,747.6,3,6,0,1,10,2,2
45,4,Stimuli\scenes\mainScenes\pexels-loi-bui-trong-17158669.jpg,11,616,/?,R,1,1248,430,1353.6,535.6,1,10,0,0,0,0,0
45,4,Stimuli\scenes\mainScenes\pexels-curtis-adams-8583892.jpg,12,821,z,L,1,198,236,303.6,341.6,1,12,1,0,0,0,0
45,4,Stimuli\scenes\mainScenes\pexels-max-rahubovskiy-6956124.jpg,13,748,z,L,1,594,282,699.6,387.6,1,6,1,1,12,4,3
45,4,Stimuli\scenes\mainScenes\pexels-curtis-adams-8031902.jpg,14,782,/?,R,1,308,188,413.6,293.6,1,10,0,1,6,4,3
45,4,Stimuli\scenes\mainScenes\AdobeStock_461935168.jpeg,15,709,z,L,1,806,602,911.6,707.6,2,14,0,0,0,0,0
45,4,Stimuli\scenes\mainScenes\pexels-curtis-adams-5008398.jpg,16,904,/?,R,1,116,534,221.6,639.6,3,12,0,1,10,3,2
45,4,Stimuli\scenes\mainScenes\pexels-curtis-adams-3958964.jpg,17,540,/?,R,1,990,538,1095.6,643.6,3,6,0,0,0,0,0
45,4,Stimuli\scenes\mainScenes\pexels-gustavo-galeano-maz-8363713.jpg,18,1148,/?,R,1,678,920,783.6,1025.6,2,14,0,1,10,4,1
45,4,Stimuli\scenes\mainScenes\pexels-curtis-adams-7601172.jpg,19,935,/?,R,1,1300,276,1405.6,381.6,1,10,0,1,12,4,2
45,4,Stimuli\scenes\mainScenes\pexels-ryan-donnelly-100575.jpg,20,1193,/?,R,1,1572,698,1677.6,803.6,3,12,0,0,0,0,0
45,4,Stimuli\scenes\mainScenes\AdobeStock_479119675.jpeg,21,1912,z,L,1,1472,158,1577.6,263.6,1,6,1,1,14,2,3
45,4,Stimuli\scenes\mainScenes\pexels-curtis-adams-5353944.jpg,22,2347,/?,R,1,1716,554,1821.6,659.6,3,12,0,1,10,4,1
45,4,Stimuli\scenes\mainScenes\pexels-keegan-checks-10117731.jpg,23,1269,z,L,1,1154,932,1259.6,1037.6,2,14,0,0,0,0,0
45,4,Stimuli\scenes\mainScenes\AdobeStock_216902237.jpeg,24,1489,z,L,1,1730,678,1835.6,783.6,2,10,1,0,0,0,0
45,4,Stimuli\scenes\mainScenes\pexels-curtis-adams-7027852.jpg,25,884,/?,R,1,1370,572,1475.6,677.6,2,14,0,0,0,0,0
45,4,Stimuli\scenes\mainScenes\pexels-loi-bui-trong-17181942.jpg,26,1054,/?,R,1,1450,646,1555.6,751.6,3,6,0,1,14,1,3
45,4,Stimuli\scenes\mainScenes\pexels-curtis-adams-4800177.jpg,27,831,/?,R,1,360,678,465.6,783.6,2,12,1,1,10,1,3
45,4,Stimuli\scenes\mainScenes\pexels-curtis-adams-7027784.jpg,28,989,/?,R,1,1152,206,1257.6,311.6,1,10,0,1,12,2,2
45,4,Stimuli\scenes\mainScenes\pexels-curtis-adams-7027760.jpg,29,1167,z,L,1,562,838,667.6,943.6,3,6,0,0,0,0,0
45,4,Stimuli\scenes\mainScenes\pexels-max-rahubovskiy-7018399.jpg,30,667,/?,R,1,550,258,655.6,363.6,1,10,0,0,0,0,0
45,4,Stimuli\scenes\mainScenes\pexels-mark-mccammon-2724749.jpg,31,974,/?,R,1,1382,918,1487.6,1023.6,2,12,1,0,0,0,0
45,4,Stimuli\scenes\mainScenes\AdobeStock_41005076.jpeg,32,837,/?,R,1,1114,894,1219.6,999.6,2,14,0,1,6,1,3
45,4,Stimuli\scenes\mainScenes\pexels-curtis-adams-15062094.jpg,33,1161,/?,R,1,1714,528,1819.6,633.6,1,10,0,0,0,0,0
45,4,Stimuli\scenes\mainScenes\pexels-curtis-adams-15409439.jpg,34,606,/?,R,1,1042,496,1147.6,601.6,3,6,0,0,0,0,0
45,4,Stimuli\scenes\mainScenes\pexels-mark-mccammon-1080721.jpg,35,1725,/?,R,1,1326,490,1431.6,595.6,3,12,0,1,14,4,2
45,4,Stimuli\scenes\mainScenes\pexels-level-media-3016430.jpg,36,703,/?,R,1,912,662,1017.6,767.6,3,14,1,1,6,3,2
45,4,Stimuli\scenes\mainScenes\pexels-alexander-zvir-4252510.jpg,37,917,z,L,1,1230,912,1335.6,1017.6,2,14,0,0,0,0,0
45,4,Stimuli\scenes\mainScenes\pexels-curtis-adams-5008407.jpg,38,984,z,L,1,774,192,879.6,297.6,1,6,1,0,0,0,0
45,4,Stimuli\scenes\mainScenes\080_L_filler_absent_plant.jpg,39,837,/?,R,1,756,212,861.6,317.6,1,10,0,1,12,2,3
45,4,Stimuli\scenes\mainScenes\pexels-curtis-adams-7028072.jpg,40,1050,z,L,1,1610,792,1715.6,897.6,3,12,0,1,10,4,1
45,4,Stimuli\scenes\mainScenes\pexels-max-rahubovskiy-6782481.jpg,41,1149,/?,R,1,1028,938,1133.6,1043.6,2,14,0,1,6,1,3
45,4,Stimuli\scenes\mainScenes\pexels-curtis-adams-3773573.jpg,42,2015,/?,R,1,932,388,1037.6,493.6,1,10,0,1,6,1,3
45,4,Stimuli\scenes\mainScenes\pexels-max-rahubovskiy-6489116.jpg,43,1254,z,L,1,214,912,319.6,1017.6,2,6,1,1,10,2,3
45,4,Stimuli\scenes\mainScenes\pexels-max-rahubovskiy-7060815.jpg,44,923,z,L,1,1620,622,1725.6,727.6,3,12,0,0,0,0,0
45,4,Stimuli\scenes\mainScenes\pexels-curtis-adams-5502217.jpg,45,1150,z,L,1,1480,828,1585.6,933.6,3,6,0,0,0,0,0
45,4,Stimuli\scenes\mainScenes\pexels-max-rahubovskiy-7005450.jpg,46,1039,z,L,1,1034,802,1139.6,907.6,2,14,0,1,12,1,1
45,4,Stimuli\scenes\mainScenes\pexels-curtis-adams-8583875.jpg,47,1458,z,L,1,368,96,473.6,201.6,1,10,0,0,0,0,0
45,4,Stimuli\scenes\mainScenes\pexels-curtis-adams-8186477.jpg,48,1467,/?,R,1,1298,954,1403.6,1059.6,2,12,1,0,0,0,0
45,4,Stimuli\scenes\mainScenes\073_L_filler_absent_coffeemug.jpg,49,1480,/?,R,1,1350,806,1455.6,911.6,2,14,0,1,10,2,1
45,4,Stimuli\scenes\mainScenes\pexels-curtis-adams-5900806.jpg,50,735,z,L,1,406,310,511.6,415.6,1,6,1,1,10,3,2
45,4,Stimuli\scenes\mainScenes\pexels-curtis-adams-10827337.jpg,51,669,z,L,1,1026,624,1131.6,729.6,3,12,0,1,14,4,1
45,4,Stimuli\scenes\mainScenes\pexels-curtis-adams-4713243.jpg,52,819,/?,R,1,1158,608,1263.6,713.6,1,10,0,0,0,0,0
45,4,Stimuli\scenes\mainScenes\pexels-max-rahubovskiy-7031868.jpg,53,2169,z,L,1,1094,70,1199.6,175.6,1,6,1,0,0,0,0
45,4,Stimuli\scenes\mainScenes\pexels-alex-qian-2343467.jpg,54,951,z,L,1,1202,910,1307.6,1015.6,2,14,0,1,12,4,3
45,4,Stimuli\scenes\mainScenes\pexels-curtis-adams-4258272.jpg,55,732,z,L,1,1364,476,1469.6,581.6,3,12,0,0,0,0,0
45,4,Stimuli\scenes\mainScenes\pexels-curtis-adams-15062154.jpg,56,859,/?,R,1,534,340,639.6,445.6,1,10,0,0,0,0,0
45,4,Stimuli\scenes\mainScenes\041_L_filler_absent_fruit.jpg,57,1026,/?,R,1,374,268,479.6,373.6,1,10,0,0,0,0,0
45,4,Stimuli\scenes\mainScenes\pexels-curtis-adams-5900798.jpg,58,965,z,R,0,88,190,193.6,295.6,1,6,1,0,0,0,0
45,4,Stimuli\scenes\mainScenes\AdobeStock_214273596.jpeg,59,906,z,L,1,828,668,933.6,773.6,2,14,0,0,0,0,0
45,4,Stimuli\scenes\mainScenes\pexels-jesse-bannister-7033835.jpg,60,1538,z,L,1,1618,522,1723.6,627.6,3,12,0,1,10,3,2
