sub_num,run_num,file_name,trial_num,rt,response,t_direction,accuracy,target_position_1,target_position_2,target_position_3,target_position_4,target_location_type,target_number,trialTypeValid0Invalid1,trialTypeExtraTarget1NoExtraTarget0,extraTargetShapeNumber,extraTargetShapePosition,extraTargetShapeType
13,4,Stimuli\scenes\mainScenes\AdobeStock_41005076.jpeg,1,1158,z,L,1,1114,894,1219.6,999.6,2,20,1,1,11,1,3
13,4,Stimuli\scenes\mainScenes\pexels-curtis-adams-8031902.jpg,2,945,z,L,1,308,188,413.6,293.6,1,19,0,1,20,4,3
13,4,Stimuli\scenes\mainScenes\pexels-max-rahubovskiy-6956124.jpg,3,916,/?,R,1,1148,914,1253.6,1019.6,2,4,0,1,20,3,1
13,4,Stimuli\scenes\mainScenes\AdobeStock_214273596.jpeg,4,1001,z,L,1,808,472,913.6,577.6,1,11,1,0,0,0,0
13,4,Stimuli\scenes\mainScenes\pexels-curtis-adams-15062154.jpg,5,669,z,L,1,534,340,639.6,445.6,1,19,0,0,0,0,0
13,4,Stimuli\scenes\mainScenes\pexels-loi-bui-trong-17158648.jpg,6,1305,/?,R,1,164,826,269.6,931.6,2,4,0,0,0,0,0
13,4,Stimuli\scenes\mainScenes\pexels-curtis-adams-4221389.jpg,7,987,/?,R,1,474,754,579.6,859.6,3,20,0,0,0,0,0
13,4,Stimuli\scenes\mainScenes\pexels-curtis-adams-5900806.jpg,8,800,/?,R,1,936,544,1041.6,649.6,3,11,0,1,20,3,2
13,4,Stimuli\scenes\mainScenes\pexels-get-lost-mike-8561916.jpg,9,831,z,R,0,254,206,359.6,311.6,1,19,0,0,0,0,0
13,4,Stimuli\scenes\mainScenes\pexels-get-lost-mike-8504308.jpg,10,1223,/?,R,1,1648,562,1753.6,667.6,3,20,0,0,0,0,0
13,4,Stimuli\scenes\mainScenes\pexels-curtis-adams-7027784.jpg,11,2260,/?,R,1,1152,206,1257.6,311.6,1,4,1,1,19,1,1
13,4,Stimuli\scenes\mainScenes\022_L_filler_absent_lamp.jpg,12,1314,z,L,1,1278,626,1383.6,731.6,3,11,0,1,20,4,2
13,4,Stimuli\scenes\mainScenes\AdobeStock_216902241.jpeg,13,2982,z,L,1,660,288,765.6,393.6,3,20,0,0,0,0,0
13,4,Stimuli\scenes\mainScenes\pexels-curtis-adams-8186477.jpg,14,1196,z,L,1,336,888,441.6,993.6,3,19,1,0,0,0,0
13,4,Stimuli\scenes\mainScenes\pexels-level-media-3016430.jpg,15,1553,/?,R,1,308,566,413.6,671.6,3,11,0,1,4,2,3
13,4,Stimuli\scenes\mainScenes\pexels-loi-bui-trong-17181942.jpg,16,835,/?,R,1,576,920,681.6,1025.6,2,4,0,1,19,2,1
13,4,Stimuli\scenes\mainScenes\pexels-curtis-adams-3773573.jpg,17,1209,z,L,1,986,920,1091.6,1025.6,2,20,1,0,0,0,0
13,4,Stimuli\scenes\mainScenes\pexels-curtis-adams-6835139.jpg,18,769,/?,R,1,820,800,925.6,905.6,2,4,0,1,11,2,3
13,4,Stimuli\scenes\mainScenes\pexels-curtis-adams-7601072.jpg,19,807,z,R,0,462,522,567.6,627.6,3,11,0,0,0,0,0
13,4,Stimuli\scenes\mainScenes\pexels-max-rahubovskiy-6489116.jpg,20,1701,z,L,1,214,912,319.6,1017.6,2,19,1,1,4,4,3
13,4,Stimuli\scenes\mainScenes\pexels-pixabay-271647.jpg,21,777,/?,R,1,538,394,643.6,499.6,1,19,0,0,0,0,0
13,4,Stimuli\scenes\mainScenes\pexels-max-rahubovskiy-7018399.jpg,22,820,z,L,1,1292,936,1397.6,1041.6,2,4,0,0,0,0,0
13,4,Stimuli\scenes\mainScenes\pexels-curtis-adams-7027786.jpg,23,844,/?,L,0,894,568,999.6,673.6,3,20,0,1,4,4,1
13,4,Stimuli\scenes\mainScenes\080_L_filler_absent_plant.jpg,24,1522,z,L,1,1170,542,1275.6,647.6,3,11,0,1,19,4,2
13,4,Stimuli\scenes\mainScenes\pexels-jean-van-der-meulen-1599791.jpg,25,974,/?,R,1,938,444,1043.6,549.6,1,20,1,0,0,0,0
13,4,Stimuli\scenes\mainScenes\pexels-curtis-adams-3958964.jpg,26,878,z,L,1,68,324,173.6,429.6,1,19,0,1,4,1,3
13,4,Stimuli\scenes\mainScenes\pexels-curtis-adams-15062099.jpg,27,1724,z,L,1,1444,918,1549.6,1023.6,2,4,0,0,0,0,0
13,4,Stimuli\scenes\mainScenes\036_L_filler_absent_bowl.jpg,28,932,z,L,1,1396,536,1501.6,641.6,3,11,0,1,4,2,1
13,4,Stimuli\scenes\mainScenes\pexels-denys-gromov-4716789.jpg,29,1851,/?,R,1,708,230,813.6,335.6,1,19,0,0,0,0,0
13,4,Stimuli\scenes\mainScenes\pexels-get-lost-mike-9993440.jpg,30,855,/?,R,1,1144,544,1249.6,649.6,3,20,0,0,0,0,0
13,4,Stimuli\scenes\mainScenes\pexels-max-rahubovskiy-7587482.jpg,31,1460,/?,R,1,438,562,543.6,667.6,3,4,1,1,20,3,2
13,4,Stimuli\scenes\mainScenes\pexels-curtis-adams-4469155.jpg,32,890,z,L,1,468,534,573.6,639.6,3,11,0,1,4,4,1
13,4,Stimuli\scenes\mainScenes\pexels-terry-magallanes-3623785.jpg,33,1726,/?,R,1,1518,212,1623.6,317.6,1,19,0,1,4,1,3
13,4,Stimuli\scenes\mainScenes\pexels-curtis-adams-4800177.jpg,34,2057,z,L,1,386,140,491.6,245.6,1,20,1,1,4,2,2
13,4,Stimuli\scenes\mainScenes\pexels-max-rahubovskiy-8082201.jpg,35,1037,/?,R,1,1386,664,1491.6,769.6,3,11,0,1,20,3,3
13,4,Stimuli\scenes\mainScenes\pexels-max-rahubovskiy-6782481.jpg,36,759,z,L,1,564,896,669.6,1001.6,3,4,1,0,0,0,0
13,4,Stimuli\scenes\mainScenes\pexels-curtis-adams-5008407.jpg,37,784,z,L,1,774,192,879.6,297.6,1,19,0,1,11,3,3
13,4,Stimuli\scenes\mainScenes\AdobeStock_196997973.jpeg,38,910,/?,R,1,442,936,547.6,1041.6,2,4,0,0,0,0,0
13,4,Stimuli\scenes\mainScenes\pexels-mark-mccammon-2724749.jpg,39,986,z,L,1,1280,570,1385.6,675.6,3,20,0,0,0,0,0
13,4,Stimuli\scenes\mainScenes\AdobeStock_461935168.jpeg,40,1258,z,L,1,1178,738,1283.6,843.6,3,11,0,0,0,0,0
13,4,Stimuli\scenes\mainScenes\pexels-max-rahubovskiy-7005450.jpg,41,803,z,L,1,656,470,761.6,575.6,1,19,0,1,20,2,2
13,4,Stimuli\scenes\mainScenes\pexels-curtis-adams-8583892.jpg,42,853,z,L,1,878,892,983.6,997.6,2,4,0,0,0,0,0
13,4,Stimuli\scenes\mainScenes\pexels-mark-mccammon-1080721.jpg,43,1179,z,L,1,160,886,265.6,991.6,2,20,1,1,11,2,3
13,4,Stimuli\scenes\mainScenes\pexels-curtis-adams-7027760.jpg,44,842,z,L,1,562,838,667.6,943.6,3,11,0,1,4,3,1
13,4,Stimuli\scenes\mainScenes\pexels-curtis-adams-4119833.jpg,45,1687,/?,R,1,1136,200,1241.6,305.6,1,19,0,1,11,4,2
13,4,Stimuli\scenes\mainScenes\pexels-gustavo-galeano-maz-8363713.jpg,46,854,z,L,1,1024,560,1129.6,665.6,1,20,1,0,0,0,0
13,4,Stimuli\scenes\mainScenes\pexels-ryan-donnelly-100575.jpg,47,1426,z,L,1,1572,698,1677.6,803.6,3,11,0,0,0,0,0
13,4,Stimuli\scenes\mainScenes\pexels-jesse-bannister-7033835.jpg,48,955,/?,R,1,284,696,389.6,801.6,2,4,0,0,0,0,0
13,4,Stimuli\scenes\mainScenes\pexels-curtis-adams-4713242.jpg,49,1363,z,L,1,1282,618,1387.6,723.6,3,20,0,0,0,0,0
13,4,Stimuli\scenes\mainScenes\pexels-curtis-adams-15409439.jpg,50,998,z,L,1,164,670,269.6,775.6,2,4,0,0,0,0,0
13,4,Stimuli\scenes\mainScenes\pexels-curtis-adams-10827337.jpg,51,1037,/?,R,1,258,480,363.6,585.6,1,19,0,1,4,4,1
13,4,Stimuli\scenes\mainScenes\pexels-max-rahubovskiy-6312077.jpg,52,1218,/?,L,0,1684,638,1789.6,743.6,3,11,0,1,4,1,3
13,4,Stimuli\scenes\mainScenes\pexels-curtis-adams-8583875.jpg,53,2080,/?,R,1,368,96,473.6,201.6,1,19,0,0,0,0,0
13,4,Stimuli\scenes\mainScenes\041_L_filler_absent_fruit.jpg,54,933,z,L,1,678,898,783.6,1003.6,2,20,1,0,0,0,0
13,4,Stimuli\scenes\mainScenes\pexels-curtis-adams-4839334.jpg,55,1636,z,L,1,472,266,577.6,371.6,1,4,1,1,20,4,2
13,4,Stimuli\scenes\mainScenes\pexels-curtis-adams-5502217.jpg,56,1792,z,L,1,1480,828,1585.6,933.6,3,11,0,1,4,4,1
13,4,Stimuli\scenes\mainScenes\pexels-saviesa-home-2089698.jpg,57,778,z,L,1,476,820,581.6,925.6,2,20,1,1,11,2,3
13,4,Stimuli\scenes\mainScenes\pexels-max-rahubovskiy-7061668.jpg,58,743,z,L,1,500,758,605.6,863.6,2,4,0,1,19,4,1
13,4,Stimuli\scenes\mainScenes\pexels-max-rahubovskiy-7031868.jpg,59,752,z,L,1,108,660,213.6,765.6,3,11,0,1,4,3,1
13,4,Stimuli\scenes\mainScenes\pexels-curtis-adams-5900798.jpg,60,898,z,L,1,88,190,193.6,295.6,1,19,0,0,0,0,0
