sub_num,run_num,file_name,trial_num,rt,response,t_direction,accuracy,target_position_1,target_position_2,target_position_3,target_position_4,target_location_type,target_number,trialTypeValid0Invalid1,trialTypeExtraTarget1NoExtraTarget0,extraTargetShapeNumber,extraTargetShapePosition,extraTargetShapeType
34,3,Stimuli\scenes\mainScenes\pexels-terry-magallanes-3623785.jpg,1,2061,/?,R,1,1518,212,1623.6,317.6,1,7,0,0,0,0,0
34,3,Stimuli\scenes\mainScenes\AdobeStock_461935168.jpeg,2,1007,z,L,1,806,602,911.6,707.6,2,6,0,0,0,0,0
34,3,Stimuli\scenes\mainScenes\pexels-max-rahubovskiy-6956843.jpg,3,1507,/?,R,1,1592,458,1697.6,563.6,1,11,1,1,7,1,3
34,3,Stimuli\scenes\mainScenes\pexels-curtis-adams-5900806.jpg,4,699,/?,R,1,406,310,511.6,415.6,1,10,1,0,0,0,0
34,3,Stimuli\scenes\mainScenes\pexels-gustavo-galeano-maz-8363713.jpg,5,1644,z,L,1,678,920,783.6,1025.6,2,6,0,1,11,1,3
34,3,Stimuli\scenes\mainScenes\pexels-curtis-adams-4469153.jpg,6,678,z,L,1,546,392,651.6,497.6,1,7,0,0,0,0,0
34,3,Stimuli\scenes\mainScenes\pexels-max-rahubovskiy-6782481.jpg,7,748,/?,R,1,564,896,669.6,1001.6,3,10,0,1,11,4,1
34,3,Stimuli\scenes\mainScenes\pexels-curtis-adams-7601172.jpg,8,681,z,L,1,820,434,925.6,539.6,1,11,1,1,10,4,2
34,3,Stimuli\scenes\mainScenes\pexels-max-rahubovskiy-6969864.jpg,9,1066,/?,R,1,1740,324,1845.6,429.6,1,6,1,0,0,0,0
34,3,Stimuli\scenes\mainScenes\pexels-keegan-checks-10117731.jpg,10,1094,z,L,1,1154,932,1259.6,1037.6,2,11,0,0,0,0,0
34,3,Stimuli\scenes\mainScenes\pexels-max-rahubovskiy-6312078.jpg,11,927,z,L,1,840,302,945.6,407.6,1,7,0,0,0,0,0
34,3,Stimuli\scenes\mainScenes\073_L_filler_absent_coffeemug.jpg,12,1283,/?,R,1,1214,430,1319.6,535.6,3,10,0,1,6,2,1
34,3,Stimuli\scenes\mainScenes\pexels-get-lost-mike-8504308.jpg,13,1791,z,L,1,1648,562,1753.6,667.6,3,7,1,1,11,4,2
34,3,Stimuli\scenes\mainScenes\041_L_filler_absent_fruit.jpg,14,1041,z,L,1,678,898,783.6,1003.6,2,6,0,1,7,3,1
34,3,Stimuli\scenes\mainScenes\pexels-curtis-adams-4713243.jpg,15,1216,/?,R,1,1354,888,1459.6,993.6,2,11,0,1,6,2,1
34,3,Stimuli\scenes\mainScenes\pexels-denys-gromov-4716789.jpg,16,958,z,L,1,316,486,421.6,591.6,3,10,0,1,7,2,1
34,3,Stimuli\scenes\mainScenes\AdobeStock_196997973.jpeg,17,970,/?,R,1,1506,552,1611.6,657.6,3,10,0,0,0,0,0
34,3,Stimuli\scenes\mainScenes\pexels-curtis-adams-4258272.jpg,18,1288,z,L,1,186,562,291.6,667.6,2,6,0,0,0,0,0
34,3,Stimuli\scenes\mainScenes\pexels-max-rahubovskiy-7587482.jpg,19,1768,z,L,1,664,282,769.6,387.6,1,11,1,0,0,0,0
34,3,Stimuli\scenes\mainScenes\pexels-curtis-adams-7027852.jpg,20,641,/?,R,1,1180,380,1285.6,485.6,1,7,0,0,0,0,0
34,3,Stimuli\scenes\mainScenes\pexels-get-lost-mike-8561916.jpg,21,1353,/?,R,1,150,720,255.6,825.6,3,7,1,1,6,2,3
34,3,Stimuli\scenes\mainScenes\AdobeStock_216902237.jpeg,22,1087,/?,R,1,1438,388,1543.6,493.6,2,6,0,1,11,1,2
34,3,Stimuli\scenes\mainScenes\pexels-alexander-zvir-4252510.jpg,23,1524,z,L,1,1230,912,1335.6,1017.6,2,11,0,1,6,3,1
34,3,Stimuli\scenes\mainScenes\pexels-curtis-adams-8583892.jpg,24,1162,z,L,1,198,236,303.6,341.6,1,10,1,0,0,0,0
34,3,Stimuli\scenes\mainScenes\pexels-max-rahubovskiy-7060815.jpg,25,953,/?,R,1,786,564,891.6,669.6,3,10,0,0,0,0,0
34,3,Stimuli\scenes\mainScenes\pexels-pixabay-534151.jpg,26,889,/?,R,1,1278,696,1383.6,801.6,2,6,0,0,0,0,0
34,3,Stimuli\scenes\mainScenes\pexels-max-rahubovskiy-6489116.jpg,27,963,z,L,1,1634,344,1739.6,449.6,1,7,0,1,10,1,2
34,3,Stimuli\scenes\mainScenes\pexels-gustavo-galeano-maz-11315956.jpg,28,1319,z,L,1,914,950,1019.6,1055.6,2,11,0,0,0,0,0
34,3,Stimuli\scenes\mainScenes\pexels-curtis-adams-4682110.jpg,29,1033,z,L,1,386,500,491.6,605.6,3,10,0,1,6,4,2
34,3,Stimuli\scenes\mainScenes\pexels-curtis-adams-15062099.jpg,30,1689,z,L,1,1444,918,1549.6,1023.6,2,6,0,0,0,0,0
34,3,Stimuli\scenes\mainScenes\pexels-curtis-adams-5502217.jpg,31,1145,/?,R,1,110,724,215.6,829.6,2,7,1,0,0,0,0
34,3,Stimuli\scenes\mainScenes\pexels-curtis-adams-5900798.jpg,32,1007,/?,R,1,414,934,519.6,1039.6,2,11,0,0,0,0,0
34,3,Stimuli\scenes\mainScenes\pexels-curtis-adams-3958964.jpg,33,1478,/?,R,1,990,538,1095.6,643.6,3,7,1,1,6,4,1
34,3,Stimuli\scenes\mainScenes\pexels-loi-bui-trong-17158669.jpg,34,1397,z,L,1,304,746,409.6,851.6,2,6,0,0,0,0,0
34,3,Stimuli\scenes\mainScenes\pexels-curtis-adams-5353944.jpg,35,1204,/?,R,1,1550,928,1655.6,1033.6,2,11,0,1,7,1,3
34,3,Stimuli\scenes\mainScenes\pexels-curtis-adams-8583875.jpg,36,664,/?,R,1,766,578,871.6,683.6,3,10,0,1,6,2,2
34,3,Stimuli\scenes\mainScenes\pexels-max-rahubovskiy-6782481.jpg,37,978,z,L,1,564,896,669.6,1001.6,3,10,0,1,7,4,1
34,3,Stimuli\scenes\mainScenes\pexels-curtis-adams-3990599.jpg,38,863,z,L,1,384,404,489.6,509.6,3,6,1,0,0,0,0
34,3,Stimuli\scenes\mainScenes\pexels-terry-magallanes-3623785.jpg,39,1053,/?,R,1,1070,902,1175.6,1007.6,2,11,0,0,0,0,0
34,3,Stimuli\scenes\mainScenes\pexels-curtis-adams-4713243.jpg,40,727,/?,R,1,1158,608,1263.6,713.6,1,7,0,0,0,0,0
34,3,Stimuli\scenes\mainScenes\pexels-curtis-adams-3935337.jpg,41,1184,z,L,1,948,188,1053.6,293.6,1,7,0,0,0,0,0
34,3,Stimuli\scenes\mainScenes\pexels-max-rahubovskiy-7214338.jpg,42,1517,/?,R,1,1334,548,1439.6,653.6,3,10,0,1,7,3,1
34,3,Stimuli\scenes\mainScenes\pexels-get-lost-mike-9993440.jpg,43,966,/?,R,1,1450,930,1555.6,1035.6,3,6,1,1,10,4,2
34,3,Stimuli\scenes\mainScenes\AdobeStock_216902241.jpeg,44,1598,z,L,1,584,832,689.6,937.6,2,11,0,1,10,1,3
34,3,Stimuli\scenes\mainScenes\pexels-curtis-adams-8583875.jpg,45,973,z,L,1,368,96,473.6,201.6,1,7,0,1,6,1,3
34,3,Stimuli\scenes\mainScenes\pexels-curtis-adams-7027784.jpg,46,784,z,L,1,1152,206,1257.6,311.6,1,6,1,0,0,0,0
34,3,Stimuli\scenes\mainScenes\AdobeStock_461935168.jpeg,47,728,z,L,1,806,602,911.6,707.6,2,11,0,1,10,1,3
34,3,Stimuli\scenes\mainScenes\pexels-sharath-g-4722305.jpg,48,744,/?,R,1,498,634,603.6,739.6,3,10,0,0,0,0,0
34,3,Stimuli\scenes\mainScenes\pexels-jesse-bannister-7033835.jpg,49,929,z,L,1,284,696,389.6,801.6,2,6,0,0,0,0,0
34,3,Stimuli\scenes\mainScenes\pexels-curtis-adams-7027786.jpg,50,1662,z,L,1,1174,922,1279.6,1027.6,2,11,0,0,0,0,0
34,3,Stimuli\scenes\mainScenes\pexels-curtis-adams-4119833.jpg,51,818,/?,R,1,1426,910,1531.6,1015.6,3,7,1,1,6,4,2
34,3,Stimuli\scenes\mainScenes\pexels-max-rahubovskiy-6489116.jpg,52,1310,z,L,1,430,522,535.6,627.6,3,10,0,1,7,3,1
34,3,Stimuli\scenes\mainScenes\pexels-max-rahubovskiy-7587482.jpg,53,729,/?,R,1,664,282,769.6,387.6,1,7,0,1,11,4,3
34,3,Stimuli\scenes\mainScenes\pexels-max-rahubovskiy-6980568.jpg,54,1033,z,L,1,1012,942,1117.6,1047.6,2,6,0,0,0,0,0
34,3,Stimuli\scenes\mainScenes\AdobeStock_106076039.jpeg,55,1776,/?,R,1,1658,480,1763.6,585.6,3,10,0,1,11,4,2
34,3,Stimuli\scenes\mainScenes\pexels-curtis-adams-4469155.jpg,56,1111,z,L,1,468,534,573.6,639.6,3,11,1,0,0,0,0
34,3,Stimuli\scenes\mainScenes\pexels-alex-qian-2343467.jpg,57,912,/?,R,1,1494,436,1599.6,541.6,1,7,0,0,0,0,0
34,3,Stimuli\scenes\mainScenes\pexels-curtis-adams-5353944.jpg,58,1063,/?,R,1,1550,928,1655.6,1033.6,2,6,0,0,0,0,0
34,3,Stimuli\scenes\mainScenes\pexels-curtis-adams-7027852.jpg,59,1102,/?,R,1,1180,380,1285.6,485.6,1,10,1,1,6,1,3
34,3,Stimuli\scenes\mainScenes\pexels-curtis-adams-5008398.jpg,60,1028,z,L,1,900,882,1005.6,987.6,2,11,0,1,10,4,1
