sub_num,run_num,file_name,trial_num,rt,response,t_direction,accuracy,target_position_1,target_position_2,target_position_3,target_position_4,target_location_type,target_number,trialTypeValid0Invalid1,trialTypeExtraTarget1NoExtraTarget0,extraTargetShapeNumber,extraTargetShapePosition,extraTargetShapeType
31,4,Stimuli\scenes\mainScenes\073_L_filler_absent_coffeemug.jpg,1,873,z,L,1,474,290,579.6,395.6,1,12,0,1,1,1,3
31,4,Stimuli\scenes\mainScenes\pexels-curtis-adams-7028072.jpg,2,852,/?,R,1,950,842,1055.6,947.6,2,15,0,0,0,0,0
31,4,Stimuli\scenes\mainScenes\pexels-curtis-adams-3935337.jpg,3,1245,z,L,1,1528,776,1633.6,881.6,3,2,0,0,0,0,0
31,4,Stimuli\scenes\mainScenes\pexels-mark-mccammon-1080721.jpg,4,863,/?,R,1,160,886,265.6,991.6,2,1,0,1,2,2,3
31,4,Stimuli\scenes\mainScenes\pexels-skitterphoto-349749.jpg,5,930,/?,L,0,158,340,263.6,445.6,1,15,1,1,2,4,3
31,4,Stimuli\scenes\mainScenes\AdobeStock_479119675.jpeg,6,1036,/?,R,1,1472,158,1577.6,263.6,1,2,1,0,0,0,0
31,4,Stimuli\scenes\mainScenes\pexels-denys-gromov-4716789.jpg,7,860,z,L,1,644,898,749.6,1003.6,2,1,0,1,2,4,2
31,4,Stimuli\scenes\mainScenes\pexels-jesse-bannister-7033835.jpg,8,1180,/?,R,1,418,370,523.6,475.6,1,12,0,0,0,0,0
31,4,Stimuli\scenes\mainScenes\pexels-max-rahubovskiy-6312078.jpg,9,841,/?,R,1,1014,852,1119.6,957.6,2,15,0,1,12,1,1
31,4,Stimuli\scenes\mainScenes\pexels-gustavo-galeano-maz-8363713.jpg,10,735,z,L,1,1024,560,1129.6,665.6,1,12,0,1,1,1,3
31,4,Stimuli\scenes\mainScenes\pexels-max-rahubovskiy-6489116.jpg,11,916,/?,R,1,1558,748,1663.6,853.6,3,2,0,0,0,0,0
31,4,Stimuli\scenes\mainScenes\pexels-max-rahubovskiy-6782481.jpg,12,1433,/?,R,1,564,896,669.6,1001.6,3,1,1,0,0,0,0
31,4,Stimuli\scenes\mainScenes\pexels-curtis-adams-6835139.jpg,13,985,z,L,1,820,800,925.6,905.6,2,15,0,1,2,3,1
31,4,Stimuli\scenes\mainScenes\pexels-ryan-donnelly-100575.jpg,14,839,/?,R,1,1428,382,1533.6,487.6,1,12,0,0,0,0,0
31,4,Stimuli\scenes\mainScenes\pexels-curtis-adams-3773573.jpg,15,734,z,L,1,280,684,385.6,789.6,3,2,0,0,0,0,0
31,4,Stimuli\scenes\mainScenes\pexels-curtis-adams-7027760.jpg,16,948,/?,R,1,74,374,179.6,479.6,1,1,1,1,12,1,3
31,4,Stimuli\scenes\mainScenes\pexels-max-rahubovskiy-6956124.jpg,17,856,/?,R,1,1148,914,1253.6,1019.6,2,15,0,1,1,3,1
31,4,Stimuli\scenes\mainScenes\pexels-max-rahubovskiy-6312077.jpg,18,747,z,L,1,488,900,593.6,1005.6,2,1,0,1,15,1,3
31,4,Stimuli\scenes\mainScenes\pexels-curtis-adams-5353944.jpg,19,906,/?,R,1,794,580,899.6,685.6,3,12,1,1,2,3,2
31,4,Stimuli\scenes\mainScenes\pexels-get-lost-mike-10450051.jpg,20,554,/?,R,1,664,546,769.6,651.6,3,2,0,0,0,0,0
31,4,Stimuli\scenes\mainScenes\pexels-get-lost-mike-9993440.jpg,21,694,z,L,1,1144,544,1249.6,649.6,3,2,0,0,0,0,0
31,4,Stimuli\scenes\mainScenes\pexels-curtis-adams-5502217.jpg,22,1038,z,L,1,110,724,215.6,829.6,2,15,0,1,12,2,3
31,4,Stimuli\scenes\mainScenes\pexels-curtis-adams-7027786.jpg,23,945,z,L,1,1174,922,1279.6,1027.6,2,12,1,0,0,0,0
31,4,Stimuli\scenes\mainScenes\pexels-curtis-adams-8583892.jpg,24,806,z,L,1,878,892,983.6,997.6,2,1,0,0,0,0,0
31,4,Stimuli\scenes\mainScenes\pexels-max-rahubovskiy-7005450.jpg,25,1076,z,L,1,1520,524,1625.6,629.6,3,2,0,0,0,0,0
31,4,Stimuli\scenes\mainScenes\pexels-curtis-adams-4119833.jpg,26,797,/?,R,1,820,934,925.6,1039.6,2,15,0,0,0,0,0
31,4,Stimuli\scenes\mainScenes\pexels-curtis-adams-4800177.jpg,27,804,/?,R,1,360,678,465.6,783.6,2,1,0,1,12,1,3
31,4,Stimuli\scenes\mainScenes\pexels-max-rahubovskiy-7018399.jpg,28,1235,/?,R,1,1618,78,1723.6,183.6,1,12,0,1,15,1,3
31,4,Stimuli\scenes\mainScenes\pexels-sharath-g-4722305.jpg,29,1126,/?,R,1,422,960,527.6,1065.6,2,15,0,1,2,2,1
31,4,Stimuli\scenes\mainScenes\pexels-curtis-adams-10827398.jpg,30,725,z,L,1,616,812,721.6,917.6,2,2,1,1,1,3,1
31,4,Stimuli\scenes\mainScenes\pexels-curtis-adams-8031902.jpg,31,621,z,L,1,982,530,1087.6,635.6,3,1,1,0,0,0,0
31,4,Stimuli\scenes\mainScenes\pexels-loi-bui-trong-17158669.jpg,32,1765,/?,R,1,1248,430,1353.6,535.6,1,12,0,0,0,0,0
31,4,Stimuli\scenes\mainScenes\AdobeStock_214273596.jpeg,33,784,/?,R,1,828,668,933.6,773.6,2,2,1,1,15,1,3
31,4,Stimuli\scenes\mainScenes\pexels-max-rahubovskiy-6969864.jpg,34,969,z,L,1,334,508,439.6,613.6,3,15,1,0,0,0,0
31,4,Stimuli\scenes\mainScenes\pexels-level-media-3016430.jpg,35,843,z,L,1,1628,362,1733.6,467.6,1,12,0,0,0,0,0
31,4,Stimuli\scenes\mainScenes\pexels-max-rahubovskiy-8082201.jpg,36,1335,/?,R,1,34,900,139.6,1005.6,2,1,0,1,12,3,3
31,4,Stimuli\scenes\mainScenes\pexels-alexander-zvir-4252510.jpg,37,1034,/?,R,1,1540,508,1645.6,613.6,3,2,0,0,0,0,0
31,4,Stimuli\scenes\mainScenes\pexels-max-rahubovskiy-7060815.jpg,38,1256,z,L,1,1692,930,1797.6,1035.6,2,15,0,1,12,1,1
31,4,Stimuli\scenes\mainScenes\pexels-curtis-adams-5900806.jpg,39,951,/?,R,1,406,310,511.6,415.6,1,12,0,0,0,0,0
31,4,Stimuli\scenes\mainScenes\pexels-keegan-checks-10117731.jpg,40,773,/?,R,1,1154,932,1259.6,1037.6,2,1,0,1,12,2,1
31,4,Stimuli\scenes\mainScenes\pexels-max-rahubovskiy-7061668.jpg,41,921,/?,R,1,44,420,149.6,525.6,1,12,0,0,0,0,0
31,4,Stimuli\scenes\mainScenes\AdobeStock_196997973.jpeg,42,927,/?,R,1,1136,116,1241.6,221.6,1,15,1,0,0,0,0
31,4,Stimuli\scenes\mainScenes\080_L_filler_absent_plant.jpg,43,1061,/?,R,1,158,514,263.6,619.6,3,2,0,0,0,0,0
31,4,Stimuli\scenes\mainScenes\036_L_filler_absent_bowl.jpg,44,1593,/?,R,1,342,854,447.6,959.6,2,1,0,1,15,3,3
31,4,Stimuli\scenes\mainScenes\pexels-loi-bui-trong-17158648.jpg,45,793,/?,R,1,164,826,269.6,931.6,2,15,0,1,12,3,1
31,4,Stimuli\scenes\mainScenes\pexels-get-lost-mike-8561916.jpg,46,716,/?,R,1,254,206,359.6,311.6,1,12,0,1,15,1,3
31,4,Stimuli\scenes\mainScenes\pexels-max-rahubovskiy-7214338.jpg,47,636,/?,R,1,1334,548,1439.6,653.6,3,1,1,1,15,2,2
31,4,Stimuli\scenes\mainScenes\AdobeStock_216902237.jpeg,48,1001,z,L,1,338,476,443.6,581.6,3,2,0,0,0,0,0
31,4,Stimuli\scenes\mainScenes\pexels-curtis-adams-4258272.jpg,49,890,/?,R,1,794,910,899.6,1015.6,3,15,1,1,12,2,2
31,4,Stimuli\scenes\mainScenes\pexels-curtis-adams-4469155.jpg,50,867,z,L,1,1694,482,1799.6,587.6,1,12,0,0,0,0,0
31,4,Stimuli\scenes\mainScenes\pexels-curtis-adams-15062099.jpg,51,853,z,L,1,1444,918,1549.6,1023.6,2,1,0,0,0,0,0
31,4,Stimuli\scenes\mainScenes\pexels-curtis-adams-7027852.jpg,52,777,/?,R,1,1610,582,1715.6,687.6,3,2,0,1,15,4,1
31,4,Stimuli\scenes\mainScenes\pexels-max-rahubovskiy-6956843.jpg,53,2527,/?,R,1,1070,274,1175.6,379.6,1,12,0,1,1,2,2
31,4,Stimuli\scenes\mainScenes\pexels-max-rahubovskiy-6980568.jpg,54,764,z,L,1,778,450,883.6,555.6,1,15,1,0,0,0,0
31,4,Stimuli\scenes\mainScenes\pexels-curtis-adams-7027784.jpg,55,759,z,L,1,254,730,359.6,835.6,3,2,0,0,0,0,0
31,4,Stimuli\scenes\mainScenes\AdobeStock_41005076.jpeg,56,825,z,L,1,1114,894,1219.6,999.6,2,1,0,1,15,3,2
31,4,Stimuli\scenes\mainScenes\pexels-jean-van-der-meulen-3753437.jpg,57,697,z,L,1,1088,218,1193.6,323.6,1,12,0,1,1,3,2
31,4,Stimuli\scenes\mainScenes\AdobeStock_461935168.jpeg,58,831,z,L,1,462,566,567.6,671.6,3,2,0,0,0,0,0
31,4,Stimuli\scenes\mainScenes\pexels-curtis-adams-10827337.jpg,59,794,z,L,1,648,914,753.6,1019.6,2,15,0,1,1,3,3
31,4,Stimuli\scenes\mainScenes\pexels-curtis-adams-8186477.jpg,60,937,z,L,1,1298,954,1403.6,1059.6,2,1,0,0,0,0,0
