sub_num,run_num,file_name,trial_num,rt,response,t_direction,accuracy,target_position_1,target_position_2,target_position_3,target_position_4,target_location_type,target_number,trialTypeValid0Invalid1,trialTypeExtraTarget1NoExtraTarget0,extraTargetShapeNumber,extraTargetShapePosition,extraTargetShapeType
1,4,Stimuli\scenes\mainScenes\pexels-curtis-adams-3990599.jpg,1,1290,z,L,1,384,404,489.6,509.6,3,12,0,1,1,3,2
1,4,Stimuli\scenes\mainScenes\pexels-curtis-adams-15062154.jpg,2,1218,z,L,1,846,916,951.6,1021.6,2,19,0,1,1,3,3
1,4,Stimuli\scenes\mainScenes\pexels-get-lost-mike-8561916.jpg,3,1953,/?,R,1,1396,768,1501.6,873.6,3,11,1,1,12,1,3
1,4,Stimuli\scenes\mainScenes\pexels-jean-van-der-meulen-3753437.jpg,4,891,z,L,1,1088,218,1193.6,323.6,1,1,0,1,12,2,3
1,4,Stimuli\scenes\mainScenes\pexels-denys-gromov-4716789.jpg,5,1111,z,L,1,316,486,421.6,591.6,3,19,1,0,0,0,0
1,4,Stimuli\scenes\mainScenes\pexels-curtis-adams-7028072.jpg,6,1443,/?,R,1,1610,792,1715.6,897.6,3,12,0,0,0,0,0
1,4,Stimuli\scenes\mainScenes\pexels-curtis-adams-15062099.jpg,7,964,z,L,1,1092,414,1197.6,519.6,1,11,0,0,0,0,0
1,4,Stimuli\scenes\mainScenes\pexels-curtis-adams-7027784.jpg,8,957,z,L,1,1152,206,1257.6,311.6,1,1,0,0,0,0,0
1,4,Stimuli\scenes\mainScenes\pexels-max-rahubovskiy-7018399.jpg,9,1535,z,L,1,1292,936,1397.6,1041.6,2,11,1,1,1,3,1
1,4,Stimuli\scenes\mainScenes\AdobeStock_106076039.jpeg,10,978,z,L,1,478,694,583.6,799.6,3,19,1,0,0,0,0
1,4,Stimuli\scenes\mainScenes\pexels-curtis-adams-3958964.jpg,11,1345,z,L,1,68,324,173.6,429.6,1,1,0,1,11,3,1
1,4,Stimuli\scenes\mainScenes\pexels-alexander-zvir-4252510.jpg,12,1115,z,L,1,1540,508,1645.6,613.6,3,12,0,0,0,0,0
1,4,Stimuli\scenes\mainScenes\pexels-curtis-adams-6835139.jpg,13,1111,z,L,1,246,756,351.6,861.6,3,12,0,1,11,3,1
1,4,Stimuli\scenes\mainScenes\pexels-curtis-adams-10827337.jpg,14,1227,/?,R,1,1390,64,1495.6,169.6,1,11,0,1,1,2,2
1,4,Stimuli\scenes\mainScenes\pexels-curtis-adams-5353944.jpg,15,1402,z,L,1,1644,132,1749.6,237.6,1,1,0,0,0,0,0
1,4,Stimuli\scenes\mainScenes\pexels-max-rahubovskiy-6956843.jpg,16,1218,/?,R,1,508,888,613.6,993.6,2,19,0,0,0,0,0
1,4,Stimuli\scenes\mainScenes\pexels-curtis-adams-8583892.jpg,17,1546,z,L,1,1504,622,1609.6,727.6,3,12,0,0,0,0,0
1,4,Stimuli\scenes\mainScenes\pexels-max-rahubovskiy-6980568.jpg,18,1115,z,L,1,1012,942,1117.6,1047.6,2,11,1,0,0,0,0
1,4,Stimuli\scenes\mainScenes\pexels-max-rahubovskiy-7214338.jpg,19,1302,z,L,1,1334,944,1439.6,1049.6,2,19,0,1,1,1,3
1,4,Stimuli\scenes\mainScenes\pexels-mark-mccammon-2724749.jpg,20,953,z,L,1,216,466,321.6,571.6,1,1,0,1,12,1,3
1,4,Stimuli\scenes\mainScenes\pexels-curtis-adams-4800177.jpg,21,1027,z,L,1,386,140,491.6,245.6,1,11,0,0,0,0,0
1,4,Stimuli\scenes\mainScenes\pexels-skitterphoto-349749.jpg,22,858,z,L,1,158,340,263.6,445.6,1,1,0,0,0,0,0
1,4,Stimuli\scenes\mainScenes\pexels-loi-bui-trong-17158648.jpg,23,903,/?,R,1,1538,826,1643.6,931.6,2,12,1,1,19,3,1
1,4,Stimuli\scenes\mainScenes\pexels-gustavo-galeano-maz-11315956.jpg,24,731,/?,R,1,914,950,1019.6,1055.6,2,19,0,1,12,3,3
1,4,Stimuli\scenes\mainScenes\AdobeStock_479119675.jpeg,25,835,z,L,1,336,538,441.6,643.6,3,12,0,0,0,0,0
1,4,Stimuli\scenes\mainScenes\AdobeStock_214273596.jpeg,26,921,z,L,1,808,472,913.6,577.6,1,11,0,0,0,0,0
1,4,Stimuli\scenes\mainScenes\pexels-max-rahubovskiy-7005450.jpg,27,1796,z,L,1,656,470,761.6,575.6,1,1,0,1,11,4,1
1,4,Stimuli\scenes\mainScenes\pexels-terry-magallanes-3623785.jpg,28,1157,/?,R,1,1518,212,1623.6,317.6,1,19,1,1,11,4,3
1,4,Stimuli\scenes\mainScenes\AdobeStock_196997973.jpeg,29,1695,/?,R,1,464,530,569.6,635.6,3,12,0,0,0,0,0
1,4,Stimuli\scenes\mainScenes\pexels-max-rahubovskiy-7060815.jpg,30,963,/?,R,1,1028,176,1133.6,281.6,1,11,0,1,12,4,2
1,4,Stimuli\scenes\mainScenes\pexels-curtis-adams-7027852.jpg,31,779,z,L,1,1370,572,1475.6,677.6,2,19,0,1,1,4,1
1,4,Stimuli\scenes\mainScenes\pexels-curtis-adams-4469155.jpg,32,1196,/?,R,1,1606,894,1711.6,999.6,2,1,1,0,0,0,0
1,4,Stimuli\scenes\mainScenes\pexels-curtis-adams-15062094.jpg,33,957,z,L,1,1230,578,1335.6,683.6,3,12,0,0,0,0,0
1,4,Stimuli\scenes\mainScenes\pexels-curtis-adams-4839334.jpg,34,879,z,L,1,1240,884,1345.6,989.6,2,19,0,1,11,3,1
1,4,Stimuli\scenes\mainScenes\pexels-max-rahubovskiy-7587482.jpg,35,749,/?,R,1,664,282,769.6,387.6,1,11,0,0,0,0,0
1,4,Stimuli\scenes\mainScenes\pexels-max-rahubovskiy-6489116.jpg,36,1350,/?,R,1,1634,344,1739.6,449.6,1,1,0,0,0,0,0
1,4,Stimuli\scenes\mainScenes\pexels-max-rahubovskiy-6312077.jpg,37,1009,z,L,1,488,900,593.6,1005.6,2,19,0,1,11,4,3
1,4,Stimuli\scenes\mainScenes\pexels-curtis-adams-8186477.jpg,38,768,/?,R,1,1062,608,1167.6,713.6,3,11,1,0,0,0,0
1,4,Stimuli\scenes\mainScenes\pexels-loi-bui-trong-17181942.jpg,39,984,z,L,1,1450,646,1555.6,751.6,3,12,0,1,11,4,2
1,4,Stimuli\scenes\mainScenes\080_L_filler_absent_plant.jpg,40,832,/?,R,1,158,514,263.6,619.6,3,1,1,1,11,4,2
1,4,Stimuli\scenes\mainScenes\pexels-pixabay-271647.jpg,41,1247,z,L,1,1518,362,1623.6,467.6,1,11,0,1,1,4,1
1,4,Stimuli\scenes\mainScenes\pexels-curtis-adams-4221389.jpg,42,783,z,L,1,474,754,579.6,859.6,3,12,0,0,0,0,0
1,4,Stimuli\scenes\mainScenes\pexels-ryan-donnelly-100575.jpg,43,880,/?,R,1,1428,382,1533.6,487.6,1,19,1,0,0,0,0
1,4,Stimuli\scenes\mainScenes\pexels-jesse-bannister-7033835.jpg,44,933,z,L,1,1316,934,1421.6,1039.6,2,1,1,1,19,4,2
1,4,Stimuli\scenes\mainScenes\pexels-curtis-adams-15409439.jpg,45,684,/?,R,1,684,694,789.6,799.6,2,19,0,1,1,4,2
1,4,Stimuli\scenes\mainScenes\AdobeStock_461935168.jpeg,46,1529,/?,R,1,462,566,567.6,671.6,3,12,0,1,19,1,3
1,4,Stimuli\scenes\mainScenes\pexels-gustavo-galeano-maz-8363713.jpg,47,779,/?,R,1,1024,560,1129.6,665.6,1,11,0,0,0,0,0
1,4,Stimuli\scenes\mainScenes\pexels-curtis-adams-5502217.jpg,48,973,/?,R,1,1566,180,1671.6,285.6,1,1,0,0,0,0,0
1,4,Stimuli\scenes\mainScenes\pexels-curtis-adams-8031902.jpg,49,1278,/?,R,1,716,780,821.6,885.6,2,12,1,1,1,4,3
1,4,Stimuli\scenes\mainScenes\pexels-curtis-adams-7601072.jpg,50,843,/?,R,1,1400,248,1505.6,353.6,1,11,0,1,12,4,3
1,4,Stimuli\scenes\mainScenes\pexels-curtis-adams-4713242.jpg,51,874,z,L,1,662,442,767.6,547.6,1,19,1,0,0,0,0
1,4,Stimuli\scenes\mainScenes\022_L_filler_absent_lamp.jpg,52,1159,z,L,1,1568,318,1673.6,423.6,1,1,0,1,19,2,3
1,4,Stimuli\scenes\mainScenes\pexels-curtis-adams-4469153.jpg,53,746,z,L,1,546,392,651.6,497.6,1,11,0,0,0,0,0
1,4,Stimuli\scenes\mainScenes\pexels-level-media-3016430.jpg,54,1278,z,L,1,1628,892,1733.6,997.6,2,19,0,0,0,0,0
1,4,Stimuli\scenes\mainScenes\pexels-get-lost-mike-10450051.jpg,55,1365,z,L,1,1450,660,1555.6,765.6,3,12,0,1,19,2,2
1,4,Stimuli\scenes\mainScenes\pexels-pixabay-534151.jpg,56,784,z,L,1,142,204,247.6,309.6,1,1,0,0,0,0,0
1,4,Stimuli\scenes\mainScenes\pexels-keegan-checks-10117731.jpg,57,1039,/?,R,1,1154,932,1259.6,1037.6,2,11,1,1,19,4,3
1,4,Stimuli\scenes\mainScenes\pexels-max-rahubovskiy-7031868.jpg,58,837,z,L,1,730,848,835.6,953.6,2,19,0,1,1,3,1
1,4,Stimuli\scenes\mainScenes\pexels-curtis-adams-3773573.jpg,59,1076,/?,R,1,986,920,1091.6,1025.6,2,1,1,0,0,0,0
1,4,Stimuli\scenes\mainScenes\AdobeStock_216902237.jpeg,60,1145,z,L,1,338,476,443.6,581.6,3,12,0,0,0,0,0
