sub_num,run_num,file_name,trial_num,rt,response,t_direction,accuracy,target_position_1,target_position_2,target_position_3,target_position_4,target_location_type,target_number,trialTypeValid0Invalid1,trialTypeExtraTarget1NoExtraTarget0,extraTargetShapeNumber,extraTargetShapePosition,extraTargetShapeType
31,7,Stimuli\scenes\mainScenes\pexels-max-rahubovskiy-7061668.jpg,1,1350,z,L,1,500,758,605.6,863.6,2,15,0,1,12,4,1
31,7,Stimuli\scenes\mainScenes\pexels-curtis-adams-8031902.jpg,2,742,z,L,1,716,780,821.6,885.6,2,12,1,1,2,4,3
31,7,Stimuli\scenes\mainScenes\pexels-mark-mccammon-1080721.jpg,3,965,/?,R,1,160,886,265.6,991.6,2,1,0,1,2,3,1
31,7,Stimuli\scenes\mainScenes\pexels-max-rahubovskiy-6980568.jpg,4,607,z,L,1,466,792,571.6,897.6,3,2,0,0,0,0,0
31,7,Stimuli\scenes\mainScenes\pexels-curtis-adams-6835139.jpg,5,850,z,L,1,820,800,925.6,905.6,2,15,0,0,0,0,0
31,7,Stimuli\scenes\mainScenes\pexels-curtis-adams-4713242.jpg,6,682,/?,R,1,662,442,767.6,547.6,1,12,0,1,2,3,3
31,7,Stimuli\scenes\mainScenes\pexels-pixabay-534151.jpg,7,581,z,L,1,1278,696,1383.6,801.6,2,2,1,1,12,2,3
31,7,Stimuli\scenes\mainScenes\pexels-curtis-adams-5008407.jpg,8,681,/?,R,1,474,946,579.6,1051.6,2,1,0,0,0,0,0
31,7,Stimuli\scenes\mainScenes\pexels-get-lost-mike-8561916.jpg,9,1161,/?,R,1,1666,914,1771.6,1019.6,2,15,0,0,0,0,0
31,7,Stimuli\scenes\mainScenes\pexels-curtis-adams-3773573.jpg,10,647,z,L,1,986,920,1091.6,1025.6,2,1,0,1,2,4,1
31,7,Stimuli\scenes\mainScenes\pexels-get-lost-mike-8504308.jpg,11,803,/?,L,0,360,946,465.6,1051.6,2,12,1,0,0,0,0
31,7,Stimuli\scenes\mainScenes\pexels-get-lost-mike-9993440.jpg,12,621,z,L,1,1144,544,1249.6,649.6,3,2,0,1,1,1,3
31,7,Stimuli\scenes\mainScenes\pexels-skitterphoto-349749.jpg,13,687,/?,R,1,698,848,803.6,953.6,2,15,0,0,0,0,0
31,7,Stimuli\scenes\mainScenes\pexels-curtis-adams-15062154.jpg,14,650,/?,R,1,622,704,727.6,809.6,3,12,1,0,0,0,0
31,7,Stimuli\scenes\mainScenes\pexels-curtis-adams-8583875.jpg,15,1000,z,L,1,1644,876,1749.6,981.6,2,1,0,1,2,3,1
31,7,Stimuli\scenes\mainScenes\pexels-curtis-adams-5353944.jpg,16,717,/?,R,1,1550,928,1655.6,1033.6,2,2,1,1,1,4,1
31,7,Stimuli\scenes\mainScenes\AdobeStock_106076039.jpeg,17,899,/?,R,1,1658,480,1763.6,585.6,3,2,0,1,15,1,3
31,7,Stimuli\scenes\mainScenes\pexels-jean-van-der-meulen-3753437.jpg,18,764,z,L,1,1290,690,1395.6,795.6,2,15,0,0,0,0,0
31,7,Stimuli\scenes\mainScenes\pexels-max-rahubovskiy-6956843.jpg,19,596,/?,R,1,1070,274,1175.6,379.6,1,12,0,0,0,0,0
31,7,Stimuli\scenes\mainScenes\pexels-curtis-adams-4119833.jpg,20,1417,/?,R,1,820,934,925.6,1039.6,2,1,0,1,12,1,1
31,7,Stimuli\scenes\mainScenes\pexels-curtis-adams-7027786.jpg,21,767,z,L,1,656,468,761.6,573.6,1,12,0,0,0,0,0
31,7,Stimuli\scenes\mainScenes\pexels-max-rahubovskiy-6489116.jpg,22,796,z,L,1,1634,344,1739.6,449.6,1,15,1,1,2,1,2
31,7,Stimuli\scenes\mainScenes\pexels-max-rahubovskiy-6312078.jpg,23,1413,/?,L,0,1758,598,1863.6,703.6,3,2,0,1,15,4,1
31,7,Stimuli\scenes\mainScenes\pexels-curtis-adams-15062094.jpg,24,809,z,L,1,340,892,445.6,997.6,2,1,0,0,0,0,0
31,7,Stimuli\scenes\mainScenes\AdobeStock_216902241.jpeg,25,710,/?,R,1,584,832,689.6,937.6,2,15,0,0,0,0,0
31,7,Stimuli\scenes\mainScenes\036_L_filler_absent_bowl.jpg,26,805,/?,R,1,342,854,447.6,959.6,2,2,1,0,0,0,0
31,7,Stimuli\scenes\mainScenes\pexels-max-rahubovskiy-6312077.jpg,27,830,/?,R,1,1548,448,1653.6,553.6,1,12,0,1,2,4,3
31,7,Stimuli\scenes\mainScenes\pexels-jesse-bannister-7033835.jpg,28,607,z,L,1,284,696,389.6,801.6,2,1,0,1,12,2,3
31,7,Stimuli\scenes\mainScenes\pexels-curtis-adams-4469155.jpg,29,1116,/?,R,1,468,534,573.6,639.6,3,12,1,1,15,2,2
31,7,Stimuli\scenes\mainScenes\AdobeStock_214273596.jpeg,30,715,/?,R,1,828,668,933.6,773.6,2,15,0,1,1,1,3
31,7,Stimuli\scenes\mainScenes\pexels-denys-gromov-4716789.jpg,31,640,/?,R,1,316,486,421.6,591.6,3,2,0,0,0,0,0
31,7,Stimuli\scenes\mainScenes\pexels-curtis-adams-5502217.jpg,32,649,z,L,1,110,724,215.6,829.6,2,1,0,0,0,0,0
31,7,Stimuli\scenes\mainScenes\AdobeStock_27579147.jpeg,33,889,/?,R,1,324,816,429.6,921.6,2,15,0,1,2,4,2
31,7,Stimuli\scenes\mainScenes\pexels-gustavo-galeano-maz-8363713.jpg,34,633,/?,R,1,1120,650,1225.6,755.6,3,2,0,1,12,1,3
31,7,Stimuli\scenes\mainScenes\pexels-gustavo-galeano-maz-11315956.jpg,35,1224,/?,R,1,1394,522,1499.6,627.6,3,1,1,0,0,0,0
31,7,Stimuli\scenes\mainScenes\pexels-max-rahubovskiy-8082201.jpg,36,873,/?,R,1,1278,86,1383.6,191.6,1,12,0,0,0,0,0
31,7,Stimuli\scenes\mainScenes\pexels-curtis-adams-8186477.jpg,37,841,/?,R,1,1062,608,1167.6,713.6,3,12,1,0,0,0,0
31,7,Stimuli\scenes\mainScenes\pexels-alexander-zvir-4252510.jpg,38,883,z,L,1,1540,508,1645.6,613.6,3,2,0,0,0,0,0
31,7,Stimuli\scenes\mainScenes\pexels-curtis-adams-15409439.jpg,39,937,/?,R,1,164,670,269.6,775.6,2,15,0,1,1,2,3
31,7,Stimuli\scenes\mainScenes\pexels-alex-qian-2343467.jpg,40,1016,z,L,1,1202,910,1307.6,1015.6,2,1,0,0,0,0,0
31,7,Stimuli\scenes\mainScenes\pexels-get-lost-mike-10450051.jpg,41,1090,/?,R,1,1324,212,1429.6,317.6,1,12,0,1,15,1,3
31,7,Stimuli\scenes\mainScenes\pexels-saviesa-home-2089698.jpg,42,776,z,L,1,712,328,817.6,433.6,1,15,1,1,1,2,3
31,7,Stimuli\scenes\mainScenes\pexels-max-rahubovskiy-6969864.jpg,43,1098,/?,R,1,1630,966,1735.6,1071.6,2,1,0,0,0,0,0
31,7,Stimuli\scenes\mainScenes\pexels-level-media-3016430.jpg,44,595,/?,R,1,912,662,1017.6,767.6,3,2,0,1,12,1,3
31,7,Stimuli\scenes\mainScenes\pexels-curtis-adams-15062099.jpg,45,777,z,L,1,1444,918,1549.6,1023.6,2,15,0,0,0,0,0
31,7,Stimuli\scenes\mainScenes\pexels-curtis-adams-6835079.jpg,46,666,/?,R,1,508,344,613.6,449.6,1,12,0,0,0,0,0
31,7,Stimuli\scenes\mainScenes\AdobeStock_216902237.jpeg,47,808,z,L,1,1438,388,1543.6,493.6,2,1,0,1,12,1,2
31,7,Stimuli\scenes\mainScenes\pexels-curtis-adams-5900798.jpg,48,1038,z,L,1,414,934,519.6,1039.6,2,2,1,1,15,4,3
31,7,Stimuli\scenes\mainScenes\pexels-curtis-adams-8583892.jpg,49,831,z,L,1,198,236,303.6,341.6,1,12,0,0,0,0,0
31,7,Stimuli\scenes\mainScenes\pexels-curtis-adams-7028072.jpg,50,872,/?,R,1,1610,792,1715.6,897.6,3,2,0,1,1,4,1
31,7,Stimuli\scenes\mainScenes\pexels-curtis-adams-4258272.jpg,51,721,z,L,1,794,910,899.6,1015.6,3,15,1,0,0,0,0
31,7,Stimuli\scenes\mainScenes\pexels-curtis-adams-7027784.jpg,52,705,z,L,1,1608,920,1713.6,1025.6,2,1,0,1,2,4,1
31,7,Stimuli\scenes\mainScenes\pexels-ryan-donnelly-100575.jpg,53,767,z,L,1,1428,382,1533.6,487.6,1,15,1,1,1,4,3
31,7,Stimuli\scenes\mainScenes\022_L_filler_absent_lamp.jpg,54,1688,z,L,1,1278,626,1383.6,731.6,3,2,0,0,0,0,0
31,7,Stimuli\scenes\mainScenes\pexels-curtis-adams-10827337.jpg,55,857,z,L,1,1390,64,1495.6,169.6,1,12,0,0,0,0,0
31,7,Stimuli\scenes\mainScenes\pexels-max-rahubovskiy-7214338.jpg,56,951,/?,R,1,1334,944,1439.6,1049.6,2,1,0,1,15,4,2
31,7,Stimuli\scenes\mainScenes\041_L_filler_absent_fruit.jpg,57,785,z,L,1,678,898,783.6,1003.6,2,15,0,0,0,0,0
31,7,Stimuli\scenes\mainScenes\pexels-jean-van-der-meulen-1599791.jpg,58,888,/?,R,1,1128,738,1233.6,843.6,3,12,1,0,0,0,0
31,7,Stimuli\scenes\mainScenes\pexels-curtis-adams-5900806.jpg,59,1572,z,L,1,1200,894,1305.6,999.6,2,1,0,1,2,1,1
31,7,Stimuli\scenes\mainScenes\pexels-curtis-adams-7027852.jpg,60,728,/?,R,1,1610,582,1715.6,687.6,3,2,0,1,15,1,3
