sub_num,run_num,file_name,trial_num,rt,response,t_direction,accuracy,target_position_1,target_position_2,target_position_3,target_position_4,target_location_type,target_number,trialTypeValid0Invalid1,trialTypeExtraTarget1NoExtraTarget0,extraTargetShapeNumber,extraTargetShapePosition,extraTargetShapeType
17,4,Stimuli\scenes\mainScenes\pexels-gustavo-galeano-maz-8363713.jpg,1,2168,/?,R,1,1120,650,1225.6,755.6,3,17,0,1,2,1,3
17,4,Stimuli\scenes\mainScenes\pexels-max-rahubovskiy-6980568.jpg,2,809,/?,R,1,1260,120,1365.6,225.6,1,2,1,0,0,0,0
17,4,Stimuli\scenes\mainScenes\041_L_filler_absent_fruit.jpg,3,871,/?,R,1,374,268,479.6,373.6,1,13,0,0,0,0,0
17,4,Stimuli\scenes\mainScenes\pexels-curtis-adams-5008398.jpg,4,1299,z,L,1,116,534,221.6,639.6,3,1,0,1,2,3,2
17,4,Stimuli\scenes\mainScenes\AdobeStock_214273596.jpeg,5,1223,/?,R,1,1662,802,1767.6,907.6,3,17,0,1,2,3,2
17,4,Stimuli\scenes\mainScenes\pexels-curtis-adams-7027760.jpg,6,1028,/?,R,1,74,374,179.6,479.6,1,13,0,0,0,0,0
17,4,Stimuli\scenes\mainScenes\AdobeStock_461935168.jpeg,7,869,z,L,1,462,566,567.6,671.6,3,2,1,1,13,4,1
17,4,Stimuli\scenes\mainScenes\pexels-get-lost-mike-9993440.jpg,8,629,/?,R,1,1144,544,1249.6,649.6,3,1,0,0,0,0,0
17,4,Stimuli\scenes\mainScenes\pexels-sharath-g-4722305.jpg,9,1052,z,L,1,1446,300,1551.6,405.6,1,13,0,0,0,0,0
17,4,Stimuli\scenes\mainScenes\pexels-curtis-adams-5502217.jpg,10,1549,z,L,1,1480,828,1585.6,933.6,3,17,0,1,2,3,2
17,4,Stimuli\scenes\mainScenes\pexels-keegan-checks-10117731.jpg,11,905,z,L,1,1290,548,1395.6,653.6,3,1,0,1,13,2,1
17,4,Stimuli\scenes\mainScenes\pexels-curtis-adams-15062094.jpg,12,1026,/?,R,1,1714,528,1819.6,633.6,1,2,1,0,0,0,0
17,4,Stimuli\scenes\mainScenes\pexels-max-rahubovskiy-7587482.jpg,13,884,/?,R,1,664,282,769.6,387.6,1,13,0,0,0,0,0
17,4,Stimuli\scenes\mainScenes\pexels-saviesa-home-2089698.jpg,14,1195,/?,R,1,476,820,581.6,925.6,2,17,1,1,1,2,3
17,4,Stimuli\scenes\mainScenes\pexels-max-rahubovskiy-7060815.jpg,15,970,z,L,1,1692,930,1797.6,1035.6,2,2,0,0,0,0,0
17,4,Stimuli\scenes\mainScenes\pexels-curtis-adams-15062099.jpg,16,826,/?,R,1,1460,528,1565.6,633.6,3,1,0,1,2,3,2
17,4,Stimuli\scenes\mainScenes\pexels-curtis-adams-7028072.jpg,17,889,/?,R,1,1188,146,1293.6,251.6,1,13,0,1,17,1,3
17,4,Stimuli\scenes\mainScenes\pexels-curtis-adams-7027784.jpg,18,1636,z,L,1,254,730,359.6,835.6,3,17,0,1,2,1,1
17,4,Stimuli\scenes\mainScenes\pexels-max-rahubovskiy-6956124.jpg,19,1582,z,L,1,1402,610,1507.6,715.6,3,1,0,0,0,0,0
17,4,Stimuli\scenes\mainScenes\pexels-pixabay-271647.jpg,20,817,z,L,1,316,910,421.6,1015.6,2,2,0,0,0,0,0
17,4,Stimuli\scenes\mainScenes\pexels-max-rahubovskiy-7061393.jpg,21,1171,/?,R,1,982,884,1087.6,989.6,2,13,1,1,17,2,1
17,4,Stimuli\scenes\mainScenes\pexels-curtis-adams-4469153.jpg,22,893,/?,R,1,964,542,1069.6,647.6,2,2,0,1,17,3,1
17,4,Stimuli\scenes\mainScenes\pexels-curtis-adams-10827337.jpg,23,637,/?,R,1,1026,624,1131.6,729.6,3,17,0,0,0,0,0
17,4,Stimuli\scenes\mainScenes\pexels-curtis-adams-4713242.jpg,24,1253,/?,R,1,282,884,387.6,989.6,2,1,1,0,0,0,0
17,4,Stimuli\scenes\mainScenes\pexels-denys-gromov-4716789.jpg,25,1028,/?,R,1,708,230,813.6,335.6,1,13,0,1,1,3,2
17,4,Stimuli\scenes\mainScenes\AdobeStock_216902241.jpeg,26,1203,/?,R,1,584,832,689.6,937.6,2,17,1,1,13,1,3
17,4,Stimuli\scenes\mainScenes\pexels-curtis-adams-4713243.jpg,27,644,z,L,1,672,894,777.6,999.6,3,1,0,1,13,2,1
17,4,Stimuli\scenes\mainScenes\pexels-jesse-bannister-7033835.jpg,28,591,/?,R,1,1316,934,1421.6,1039.6,2,2,0,0,0,0,0
17,4,Stimuli\scenes\mainScenes\pexels-curtis-adams-3990599.jpg,29,981,/?,R,1,1268,412,1373.6,517.6,3,2,1,0,0,0,0
17,4,Stimuli\scenes\mainScenes\pexels-gustavo-galeano-maz-11315956.jpg,30,1711,z,L,1,1394,522,1499.6,627.6,3,17,0,0,0,0,0
17,4,Stimuli\scenes\mainScenes\pexels-get-lost-mike-8504308.jpg,31,1210,/?,R,1,1648,562,1753.6,667.6,3,1,0,0,0,0,0
17,4,Stimuli\scenes\mainScenes\pexels-curtis-adams-5900806.jpg,32,2392,/?,R,1,406,310,511.6,415.6,1,13,0,1,1,3,2
17,4,Stimuli\scenes\mainScenes\AdobeStock_41005076.jpeg,33,1485,z,L,1,1114,894,1219.6,999.6,2,17,1,0,0,0,0
17,4,Stimuli\scenes\mainScenes\pexels-max-rahubovskiy-6969864.jpg,34,1695,/?,R,1,1630,966,1735.6,1071.6,2,2,0,0,0,0,0
17,4,Stimuli\scenes\mainScenes\pexels-level-media-3016430.jpg,35,917,/?,R,1,912,662,1017.6,767.6,3,1,0,1,2,4,1
17,4,Stimuli\scenes\mainScenes\080_L_filler_absent_plant.jpg,36,1215,/?,R,1,756,212,861.6,317.6,1,13,0,0,0,0,0
17,4,Stimuli\scenes\mainScenes\pexels-curtis-adams-8583875.jpg,37,1433,z,L,1,766,578,871.6,683.6,3,17,0,1,13,2,2
17,4,Stimuli\scenes\mainScenes\pexels-max-rahubovskiy-7005450.jpg,38,2698,/?,R,1,1034,802,1139.6,907.6,2,1,1,1,13,1,1
17,4,Stimuli\scenes\mainScenes\022_L_filler_absent_lamp.jpg,39,1587,/?,R,1,1568,318,1673.6,423.6,1,13,0,1,2,1,1
17,4,Stimuli\scenes\mainScenes\pexels-pixabay-534151.jpg,40,1000,/?,R,1,1278,696,1383.6,801.6,2,2,0,0,0,0,0
17,4,Stimuli\scenes\mainScenes\pexels-curtis-adams-7027786.jpg,41,965,z,L,1,656,468,761.6,573.6,1,13,0,0,0,0,0
17,4,Stimuli\scenes\mainScenes\pexels-mark-mccammon-2724749.jpg,42,1444,/?,R,1,168,648,273.6,753.6,3,17,0,1,2,3,3
17,4,Stimuli\scenes\mainScenes\pexels-jean-van-der-meulen-1599791.jpg,43,1069,z,L,1,938,444,1043.6,549.6,1,1,1,1,13,4,3
17,4,Stimuli\scenes\mainScenes\pexels-max-rahubovskiy-8082201.jpg,44,851,/?,R,1,1386,664,1491.6,769.6,3,2,1,0,0,0,0
17,4,Stimuli\scenes\mainScenes\pexels-curtis-adams-4221389.jpg,45,1484,z,L,1,1714,630,1819.6,735.6,3,17,0,1,2,4,2
17,4,Stimuli\scenes\mainScenes\pexels-curtis-adams-15062154.jpg,46,767,z,L,1,1252,540,1357.6,645.6,3,1,0,0,0,0,0
17,4,Stimuli\scenes\mainScenes\pexels-curtis-adams-5900798.jpg,47,1995,/?,R,1,88,190,193.6,295.6,1,13,0,1,2,2,3
17,4,Stimuli\scenes\mainScenes\073_L_filler_absent_coffeemug.jpg,48,990,/?,R,1,1350,806,1455.6,911.6,2,2,0,0,0,0,0
17,4,Stimuli\scenes\mainScenes\pexels-loi-bui-trong-17158669.jpg,49,977,z,L,1,1248,430,1353.6,535.6,1,13,0,1,17,4,2
17,4,Stimuli\scenes\mainScenes\pexels-mark-mccammon-1080721.jpg,50,1733,z,L,1,160,886,265.6,991.6,2,2,0,0,0,0,0
17,4,Stimuli\scenes\mainScenes\AdobeStock_27579147.jpeg,51,1038,z,L,1,1282,470,1387.6,575.6,3,17,0,0,0,0,0
17,4,Stimuli\scenes\mainScenes\pexels-curtis-adams-6835139.jpg,52,1397,z,L,1,1614,792,1719.6,897.6,3,1,0,0,0,0,0
17,4,Stimuli\scenes\mainScenes\pexels-terry-magallanes-3623785.jpg,53,741,z,R,0,1070,902,1175.6,1007.6,2,2,0,1,1,4,3
17,4,Stimuli\scenes\mainScenes\pexels-max-rahubovskiy-6489116.jpg,54,984,/?,R,1,1634,344,1739.6,449.6,1,17,1,1,2,4,3
17,4,Stimuli\scenes\mainScenes\pexels-curtis-adams-7601072.jpg,55,1793,/?,R,1,1400,248,1505.6,353.6,1,13,0,1,17,1,3
17,4,Stimuli\scenes\mainScenes\pexels-max-rahubovskiy-6956843.jpg,56,975,z,L,1,508,888,613.6,993.6,2,1,1,0,0,0,0
17,4,Stimuli\scenes\mainScenes\pexels-curtis-adams-4469155.jpg,57,1134,z,L,1,1606,894,1711.6,999.6,2,2,0,0,0,0,0
17,4,Stimuli\scenes\mainScenes\pexels-curtis-adams-4682110.jpg,58,1055,z,L,1,322,898,427.6,1003.6,2,17,1,1,2,2,3
17,4,Stimuli\scenes\mainScenes\pexels-curtis-adams-4839334.jpg,59,1357,z,L,1,472,266,577.6,371.6,1,13,0,1,1,2,2
17,4,Stimuli\scenes\mainScenes\pexels-get-lost-mike-10450051.jpg,60,1190,/?,R,1,664,546,769.6,651.6,3,1,0,1,13,1,3
