sub_num,run_num,file_name,trial_num,rt,response,t_direction,accuracy,target_position_1,target_position_2,target_position_3,target_position_4,target_location_type,target_number,trialTypeValid0Invalid1,trialTypeExtraTarget1NoExtraTarget0,extraTargetShapeNumber,extraTargetShapePosition,extraTargetShapeType
8,7,Stimuli\scenes\mainScenes\036_L_filler_absent_bowl.jpg,1,959,/?,R,1,430,232,535.6,337.6,1,20,0,1,4,3,3
8,7,Stimuli\scenes\mainScenes\022_L_filler_absent_lamp.jpg,2,721,/?,R,1,1278,626,1383.6,731.6,3,4,0,0,0,0,0
8,7,Stimuli\scenes\mainScenes\pexels-curtis-adams-5900806.jpg,3,636,z,L,1,936,544,1041.6,649.6,3,5,0,0,0,0,0
8,7,Stimuli\scenes\mainScenes\pexels-max-rahubovskiy-6489116.jpg,4,1130,/?,R,1,214,912,319.6,1017.6,2,10,0,0,0,0,0
8,7,Stimuli\scenes\mainScenes\pexels-curtis-adams-4221389.jpg,5,839,/?,R,1,1714,630,1819.6,735.6,3,4,0,0,0,0,0
8,7,Stimuli\scenes\mainScenes\pexels-alexander-zvir-4252510.jpg,6,830,z,L,1,1230,912,1335.6,1017.6,2,10,0,1,5,4,1
8,7,Stimuli\scenes\mainScenes\pexels-curtis-adams-4682110.jpg,7,709,/?,R,1,1160,688,1265.6,793.6,3,5,0,0,0,0,0
8,7,Stimuli\scenes\mainScenes\pexels-max-rahubovskiy-6782481.jpg,8,665,/?,R,1,1352,594,1457.6,699.6,3,20,1,0,0,0,0
8,7,Stimuli\scenes\mainScenes\pexels-curtis-adams-3935337.jpg,9,927,z,L,1,948,188,1053.6,293.6,1,4,1,1,20,3,2
8,7,Stimuli\scenes\mainScenes\pexels-curtis-adams-15062154.jpg,10,1074,z,L,1,846,916,951.6,1021.6,2,10,0,1,20,3,3
8,7,Stimuli\scenes\mainScenes\pexels-get-lost-mike-10450051.jpg,11,1135,/?,R,1,1324,212,1429.6,317.6,1,20,0,0,0,0,0
8,7,Stimuli\scenes\mainScenes\pexels-max-rahubovskiy-7061668.jpg,12,961,z,R,0,1488,510,1593.6,615.6,3,5,0,1,20,2,1
8,7,Stimuli\scenes\mainScenes\pexels-curtis-adams-5008407.jpg,13,1451,/?,R,1,774,192,879.6,297.6,1,20,0,0,0,0,0
8,7,Stimuli\scenes\mainScenes\AdobeStock_216902241.jpeg,14,1401,z,L,1,660,288,765.6,393.6,3,4,0,1,5,3,2
8,7,Stimuli\scenes\mainScenes\pexels-curtis-adams-4800177.jpg,15,799,/?,R,1,360,678,465.6,783.6,2,10,0,1,4,4,3
8,7,Stimuli\scenes\mainScenes\pexels-mark-mccammon-2724749.jpg,16,1790,/?,R,1,168,648,273.6,753.6,3,5,0,0,0,0,0
8,7,Stimuli\scenes\mainScenes\pexels-curtis-adams-4469155.jpg,17,983,/?,R,1,468,534,573.6,639.6,3,4,0,1,10,1,1
8,7,Stimuli\scenes\mainScenes\AdobeStock_216902237.jpeg,18,1008,z,L,1,1254,226,1359.6,331.6,1,10,1,0,0,0,0
8,7,Stimuli\scenes\mainScenes\pexels-curtis-adams-7027786.jpg,19,615,/?,R,1,656,468,761.6,573.6,1,5,1,1,4,2,3
8,7,Stimuli\scenes\mainScenes\pexels-curtis-adams-7027784.jpg,20,775,z,L,1,1466,458,1571.6,563.6,1,20,0,0,0,0,0
8,7,Stimuli\scenes\mainScenes\pexels-curtis-adams-7601172.jpg,21,680,z,L,1,1300,276,1405.6,381.6,1,20,0,1,5,1,3
8,7,Stimuli\scenes\mainScenes\pexels-curtis-adams-6835139.jpg,22,805,/?,R,1,246,756,351.6,861.6,3,4,0,1,20,4,2
8,7,Stimuli\scenes\mainScenes\AdobeStock_41005076.jpeg,23,669,/?,R,1,48,390,153.6,495.6,1,5,1,1,20,1,3
8,7,Stimuli\scenes\mainScenes\pexels-max-rahubovskiy-8082201.jpg,24,818,/?,R,1,34,900,139.6,1005.6,2,10,0,1,5,1,3
8,7,Stimuli\scenes\mainScenes\pexels-max-rahubovskiy-7061393.jpg,25,905,z,L,1,982,884,1087.6,989.6,2,4,1,0,0,0,0
8,7,Stimuli\scenes\mainScenes\pexels-denys-gromov-4716789.jpg,26,771,z,L,1,644,898,749.6,1003.6,2,10,0,0,0,0,0
8,7,Stimuli\scenes\mainScenes\pexels-curtis-adams-8031902.jpg,27,917,/?,R,1,308,188,413.6,293.6,1,20,0,0,0,0,0
8,7,Stimuli\scenes\mainScenes\pexels-max-rahubovskiy-6969864.jpg,28,784,/?,R,1,334,508,439.6,613.6,3,5,0,0,0,0,0
8,7,Stimuli\scenes\mainScenes\pexels-max-rahubovskiy-7018399.jpg,29,865,/?,R,1,1292,936,1397.6,1041.6,2,4,1,1,10,3,1
8,7,Stimuli\scenes\mainScenes\pexels-max-rahubovskiy-6312077.jpg,30,814,z,L,1,488,900,593.6,1005.6,2,10,0,1,4,4,3
8,7,Stimuli\scenes\mainScenes\pexels-max-rahubovskiy-6312078.jpg,31,1165,z,L,1,1758,598,1863.6,703.6,3,5,0,1,4,4,1
8,7,Stimuli\scenes\mainScenes\pexels-max-rahubovskiy-6980568.jpg,32,982,/?,R,1,778,450,883.6,555.6,1,20,0,0,0,0,0
8,7,Stimuli\scenes\mainScenes\AdobeStock_214273596.jpeg,33,878,/?,R,1,808,472,913.6,577.6,1,4,1,0,0,0,0
8,7,Stimuli\scenes\mainScenes\pexels-curtis-adams-8583875.jpg,34,859,/?,R,1,368,96,473.6,201.6,1,20,0,0,0,0,0
8,7,Stimuli\scenes\mainScenes\pexels-curtis-adams-5353944.jpg,35,681,z,L,1,794,580,899.6,685.6,3,5,0,0,0,0,0
8,7,Stimuli\scenes\mainScenes\pexels-get-lost-mike-9993440.jpg,36,742,z,L,1,860,678,965.6,783.6,2,10,0,1,4,2,1
8,7,Stimuli\scenes\mainScenes\pexels-curtis-adams-5900798.jpg,37,912,z,L,1,1580,532,1685.6,637.6,3,4,0,0,0,0,0
8,7,Stimuli\scenes\mainScenes\pexels-jesse-bannister-7033835.jpg,38,1398,z,R,0,1316,934,1421.6,1039.6,2,20,1,1,4,1,1
8,7,Stimuli\scenes\mainScenes\pexels-curtis-adams-3773573.jpg,39,746,z,L,1,280,684,385.6,789.6,3,5,0,1,10,2,1
8,7,Stimuli\scenes\mainScenes\pexels-gustavo-galeano-maz-8363713.jpg,40,772,/?,R,1,678,920,783.6,1025.6,2,10,0,1,4,4,1
8,7,Stimuli\scenes\mainScenes\pexels-max-rahubovskiy-6956843.jpg,41,964,/?,R,1,1070,274,1175.6,379.6,1,4,1,0,0,0,0
8,7,Stimuli\scenes\mainScenes\pexels-sharath-g-4722305.jpg,42,821,/?,R,1,422,960,527.6,1065.6,2,10,0,0,0,0,0
8,7,Stimuli\scenes\mainScenes\pexels-curtis-adams-4469153.jpg,43,788,z,L,1,232,680,337.6,785.6,3,5,0,1,10,1,2
8,7,Stimuli\scenes\mainScenes\AdobeStock_106076039.jpeg,44,861,/?,R,1,32,230,137.6,335.6,1,20,0,0,0,0,0
8,7,Stimuli\scenes\mainScenes\pexels-gustavo-galeano-maz-11315956.jpg,45,715,/?,R,1,1394,522,1499.6,627.6,3,4,0,0,0,0,0
8,7,Stimuli\scenes\mainScenes\pexels-max-rahubovskiy-7587482.jpg,46,797,z,L,1,1240,916,1345.6,1021.6,2,20,1,1,4,4,3
8,7,Stimuli\scenes\mainScenes\pexels-loi-bui-trong-17158648.jpg,47,800,z,L,1,1538,826,1643.6,931.6,2,10,0,1,4,2,2
8,7,Stimuli\scenes\mainScenes\pexels-curtis-adams-3958964.jpg,48,713,/?,R,1,990,538,1095.6,643.6,3,5,0,0,0,0,0
8,7,Stimuli\scenes\mainScenes\pexels-pixabay-271647.jpg,49,775,z,L,1,316,910,421.6,1015.6,2,10,0,1,5,3,1
8,7,Stimuli\scenes\mainScenes\pexels-curtis-adams-6835079.jpg,50,1003,/?,R,1,248,648,353.6,753.6,3,4,0,0,0,0,0
8,7,Stimuli\scenes\mainScenes\pexels-curtis-adams-3990599.jpg,51,763,z,L,1,1268,412,1373.6,517.6,3,5,0,1,20,4,1
8,7,Stimuli\scenes\mainScenes\pexels-curtis-adams-15062094.jpg,52,965,z,L,1,340,892,445.6,997.6,2,20,1,0,0,0,0
8,7,Stimuli\scenes\mainScenes\pexels-max-rahubovskiy-6956124.jpg,53,895,z,L,1,594,282,699.6,387.6,1,20,0,1,10,2,3
8,7,Stimuli\scenes\mainScenes\pexels-curtis-adams-4258272.jpg,54,819,z,L,1,186,562,291.6,667.6,2,10,0,1,20,3,1
8,7,Stimuli\scenes\mainScenes\pexels-terry-magallanes-3623785.jpg,55,715,z,L,1,528,442,633.6,547.6,3,4,0,0,0,0,0
8,7,Stimuli\scenes\mainScenes\pexels-alex-qian-2343467.jpg,56,840,z,L,1,1202,910,1307.6,1015.6,2,5,1,0,0,0,0
8,7,Stimuli\scenes\mainScenes\pexels-curtis-adams-4119833.jpg,57,983,z,L,1,1136,200,1241.6,305.6,1,4,1,1,5,3,3
8,7,Stimuli\scenes\mainScenes\pexels-curtis-adams-7601072.jpg,58,584,z,L,1,1298,510,1403.6,615.6,3,5,0,0,0,0,0
8,7,Stimuli\scenes\mainScenes\080_L_filler_absent_plant.jpg,59,976,/?,R,1,478,904,583.6,1009.6,2,10,0,0,0,0,0
8,7,Stimuli\scenes\mainScenes\pexels-curtis-adams-7027852.jpg,60,850,z,L,1,1180,380,1285.6,485.6,1,20,0,1,5,2,2
