sub_num,run_num,file_name,trial_num,rt,response,t_direction,accuracy,target_position_1,target_position_2,target_position_3,target_position_4,target_location_type,target_number,trialTypeValid0Invalid1,trialTypeExtraTarget1NoExtraTarget0,extraTargetShapeNumber,extraTargetShapePosition,extraTargetShapeType
43,2,Stimuli\scenes\mainScenes\pexels-curtis-adams-4221389.jpg,1,2189,z,L,1,474,754,579.6,859.6,3,9,0,1,10,4,2
43,2,Stimuli\scenes\mainScenes\pexels-max-rahubovskiy-6956124.jpg,2,1013,/?,R,1,430,890,535.6,995.6,3,10,0,1,17,1,2
43,2,Stimuli\scenes\mainScenes\pexels-gustavo-galeano-maz-8363713.jpg,3,846,/?,R,1,1024,560,1129.6,665.6,1,4,0,0,0,0,0
43,2,Stimuli\scenes\mainScenes\pexels-curtis-adams-7027784.jpg,4,1873,z,L,1,1608,920,1713.6,1025.6,2,17,0,0,0,0,0
43,2,Stimuli\scenes\mainScenes\pexels-curtis-adams-4682110.jpg,5,1567,/?,R,1,322,898,427.6,1003.6,2,9,1,0,0,0,0
43,2,Stimuli\scenes\mainScenes\pexels-max-rahubovskiy-6312078.jpg,6,2760,/?,R,1,128,468,233.6,573.6,1,17,1,1,9,2,2
43,2,Stimuli\scenes\mainScenes\AdobeStock_41005076.jpeg,7,1402,/?,R,1,1530,528,1635.6,633.6,3,10,0,0,0,0,0
43,2,Stimuli\scenes\mainScenes\pexels-curtis-adams-5353944.jpg,8,1471,/?,R,1,1644,132,1749.6,237.6,1,4,0,1,10,1,3
43,2,Stimuli\scenes\mainScenes\pexels-curtis-adams-10827337.jpg,9,780,/?,R,1,1026,624,1131.6,729.6,3,9,0,0,0,0,0
43,2,Stimuli\scenes\mainScenes\pexels-curtis-adams-8186477.jpg,10,757,/?,R,1,1062,608,1167.6,713.6,3,10,0,0,0,0,0
43,2,Stimuli\scenes\mainScenes\AdobeStock_216902241.jpeg,11,1648,z,L,1,584,832,689.6,937.6,2,17,0,0,0,0,0
43,2,Stimuli\scenes\mainScenes\pexels-curtis-adams-15062094.jpg,12,1246,z,L,1,1714,528,1819.6,633.6,1,4,0,1,10,3,1
43,2,Stimuli\scenes\mainScenes\pexels-max-rahubovskiy-7061668.jpg,13,1268,/?,R,1,500,758,605.6,863.6,2,17,0,1,4,3,3
43,2,Stimuli\scenes\mainScenes\pexels-loi-bui-trong-17181942.jpg,14,1641,z,R,0,1450,646,1555.6,751.6,3,9,0,1,17,1,3
43,2,Stimuli\scenes\mainScenes\pexels-level-media-3016430.jpg,15,1097,z,L,1,1628,362,1733.6,467.6,1,10,1,1,4,3,2
43,2,Stimuli\scenes\mainScenes\pexels-curtis-adams-7027760.jpg,16,1909,/?,R,1,562,838,667.6,943.6,3,4,1,0,0,0,0
43,2,Stimuli\scenes\mainScenes\AdobeStock_461935168.jpeg,17,1452,z,L,1,806,602,911.6,707.6,2,17,0,0,0,0,0
43,2,Stimuli\scenes\mainScenes\pexels-curtis-adams-5008407.jpg,18,1418,/?,R,1,104,590,209.6,695.6,3,4,1,1,17,4,1
43,2,Stimuli\scenes\mainScenes\pexels-get-lost-mike-8504308.jpg,19,1025,z,L,1,1648,562,1753.6,667.6,3,9,0,1,4,3,1
43,2,Stimuli\scenes\mainScenes\073_L_filler_absent_coffeemug.jpg,20,900,z,L,1,1214,430,1319.6,535.6,3,10,0,0,0,0,0
43,2,Stimuli\scenes\mainScenes\pexels-curtis-adams-4713243.jpg,21,657,z,L,1,1158,608,1263.6,713.6,1,17,1,0,0,0,0
43,2,Stimuli\scenes\mainScenes\pexels-pixabay-271647.jpg,22,1326,/?,R,1,1320,526,1425.6,631.6,3,9,0,1,4,3,1
43,2,Stimuli\scenes\mainScenes\pexels-max-rahubovskiy-7214338.jpg,23,675,/?,R,1,730,454,835.6,559.6,1,4,0,1,9,4,2
43,2,Stimuli\scenes\mainScenes\pexels-max-rahubovskiy-7018399.jpg,24,1207,z,L,1,1332,544,1437.6,649.6,3,10,0,0,0,0,0
43,2,Stimuli\scenes\mainScenes\pexels-max-rahubovskiy-6782481.jpg,25,831,/?,R,1,1352,594,1457.6,699.6,3,9,0,0,0,0,0
43,2,Stimuli\scenes\mainScenes\pexels-curtis-adams-4119833.jpg,26,1503,z,L,1,1426,910,1531.6,1015.6,3,10,0,1,4,2,3
43,2,Stimuli\scenes\mainScenes\pexels-pixabay-534151.jpg,27,1210,/?,R,1,142,204,247.6,309.6,1,4,0,1,10,1,2
43,2,Stimuli\scenes\mainScenes\pexels-curtis-adams-3773573.jpg,28,800,/?,R,1,932,388,1037.6,493.6,1,17,1,0,0,0,0
43,2,Stimuli\scenes\mainScenes\pexels-gustavo-galeano-maz-11315956.jpg,29,704,/?,R,1,864,288,969.6,393.6,1,4,0,1,9,2,2
43,2,Stimuli\scenes\mainScenes\pexels-curtis-adams-5008398.jpg,30,1700,/?,R,1,1586,490,1691.6,595.6,3,9,0,0,0,0,0
43,2,Stimuli\scenes\mainScenes\pexels-max-rahubovskiy-7060815.jpg,31,600,z,L,1,786,564,891.6,669.6,3,17,1,1,10,1,1
43,2,Stimuli\scenes\mainScenes\pexels-curtis-adams-3935337.jpg,32,1022,z,L,1,258,566,363.6,671.6,3,10,0,0,0,0,0
43,2,Stimuli\scenes\mainScenes\pexels-denys-gromov-4716789.jpg,33,1589,z,L,1,316,486,421.6,591.6,3,9,0,1,10,4,2
43,2,Stimuli\scenes\mainScenes\pexels-get-lost-mike-10450051.jpg,34,1102,/?,R,1,1324,212,1429.6,317.6,1,4,0,1,9,1,3
43,2,Stimuli\scenes\mainScenes\pexels-max-rahubovskiy-6980568.jpg,35,1098,/?,R,1,466,792,571.6,897.6,3,10,0,0,0,0,0
43,2,Stimuli\scenes\mainScenes\pexels-loi-bui-trong-17158669.jpg,36,741,z,L,1,1248,430,1353.6,535.6,1,17,1,0,0,0,0
43,2,Stimuli\scenes\mainScenes\pexels-curtis-adams-4839334.jpg,37,614,/?,R,1,1398,496,1503.6,601.6,3,17,1,1,4,3,1
43,2,Stimuli\scenes\mainScenes\pexels-max-rahubovskiy-7061393.jpg,38,1156,z,L,1,1602,844,1707.6,949.6,3,9,0,1,4,2,1
43,2,Stimuli\scenes\mainScenes\pexels-curtis-adams-8031902.jpg,39,978,/?,R,1,982,530,1087.6,635.6,3,10,0,0,0,0,0
43,2,Stimuli\scenes\mainScenes\pexels-max-rahubovskiy-6312077.jpg,40,929,/?,R,1,1548,448,1653.6,553.6,1,4,0,0,0,0,0
43,2,Stimuli\scenes\mainScenes\pexels-curtis-adams-15409439.jpg,41,2035,z,L,1,1042,496,1147.6,601.6,3,9,0,0,0,0,0
43,2,Stimuli\scenes\mainScenes\pexels-alexander-zvir-4252510.jpg,42,1191,/?,R,1,1230,912,1335.6,1017.6,2,10,1,1,9,1,3
43,2,Stimuli\scenes\mainScenes\036_L_filler_absent_bowl.jpg,43,1169,/?,R,1,430,232,535.6,337.6,1,4,0,1,10,3,3
43,2,Stimuli\scenes\mainScenes\pexels-get-lost-mike-8561916.jpg,44,1778,z,L,1,1666,914,1771.6,1019.6,2,17,0,1,4,3,1
43,2,Stimuli\scenes\mainScenes\AdobeStock_106076039.jpeg,45,982,z,L,1,1440,772,1545.6,877.6,2,17,0,1,10,2,1
43,2,Stimuli\scenes\mainScenes\pexels-curtis-adams-4258272.jpg,46,779,z,L,1,1364,476,1469.6,581.6,3,9,0,0,0,0,0
43,2,Stimuli\scenes\mainScenes\pexels-curtis-adams-4469153.jpg,47,1164,z,L,1,232,680,337.6,785.6,3,10,0,0,0,0,0
43,2,Stimuli\scenes\mainScenes\pexels-curtis-adams-7027852.jpg,48,1144,/?,R,1,1610,582,1715.6,687.6,3,4,1,0,0,0,0
43,2,Stimuli\scenes\mainScenes\pexels-ryan-donnelly-100575.jpg,49,587,z,L,1,838,534,943.6,639.6,3,9,0,1,10,3,1
43,2,Stimuli\scenes\mainScenes\pexels-curtis-adams-8583875.jpg,50,1670,/?,R,1,368,96,473.6,201.6,1,17,1,0,0,0,0
43,2,Stimuli\scenes\mainScenes\pexels-max-rahubovskiy-7587482.jpg,51,659,z,L,1,664,282,769.6,387.6,1,10,1,1,9,3,2
43,2,Stimuli\scenes\mainScenes\pexels-curtis-adams-5502217.jpg,52,1617,z,L,1,1566,180,1671.6,285.6,1,4,0,0,0,0,0
43,2,Stimuli\scenes\mainScenes\pexels-curtis-adams-5900798.jpg,53,865,z,L,1,414,934,519.6,1039.6,2,17,0,1,9,1,1
43,2,Stimuli\scenes\mainScenes\pexels-max-rahubovskiy-7005450.jpg,54,1267,/?,R,1,1210,150,1315.6,255.6,1,4,0,1,17,3,3
43,2,Stimuli\scenes\mainScenes\022_L_filler_absent_lamp.jpg,55,829,z,L,1,1278,626,1383.6,731.6,3,9,0,0,0,0,0
43,2,Stimuli\scenes\mainScenes\pexels-curtis-adams-4713242.jpg,56,803,/?,R,1,1282,618,1387.6,723.6,3,10,0,0,0,0,0
43,2,Stimuli\scenes\mainScenes\pexels-alex-qian-2343467.jpg,57,1420,z,L,1,1494,436,1599.6,541.6,1,4,0,0,0,0,0
43,2,Stimuli\scenes\mainScenes\pexels-mark-mccammon-2724749.jpg,58,410,/?,R,1,1280,570,1385.6,675.6,3,9,0,0,0,0,0
43,2,Stimuli\scenes\mainScenes\080_L_filler_absent_plant.jpg,59,927,z,L,1,478,904,583.6,1009.6,2,17,0,1,10,1,3
43,2,Stimuli\scenes\mainScenes\pexels-curtis-adams-7601072.jpg,60,1596,/?,R,1,590,926,695.6,1031.6,2,10,1,0,0,0,0
