sub_num,run_num,file_name,trial_num,rt,response,t_direction,accuracy,target_position_1,target_position_2,target_position_3,target_position_4,target_location_type,target_number,trialTypeValid0Invalid1,trialTypeExtraTarget1NoExtraTarget0,extraTargetShapeNumber,extraTargetShapePosition,extraTargetShapeType
28,2,Stimuli\scenes\mainScenes\pexels-max-rahubovskiy-6782481.jpg,1,1486,/?,R,1,1352,594,1457.6,699.6,3,20,1,0,0,0,0
28,2,Stimuli\scenes\mainScenes\pexels-curtis-adams-8583875.jpg,2,939,/?,R,1,818,936,923.6,1041.6,2,10,0,0,0,0,0
28,2,Stimuli\scenes\mainScenes\pexels-curtis-adams-4839334.jpg,3,1008,/?,R,1,1398,496,1503.6,601.6,3,17,0,0,0,0,0
28,2,Stimuli\scenes\mainScenes\pexels-curtis-adams-5900798.jpg,4,1314,/?,R,1,1580,532,1685.6,637.6,3,2,0,1,17,1,1
28,2,Stimuli\scenes\mainScenes\pexels-saviesa-home-2089698.jpg,5,1053,z,L,1,534,446,639.6,551.6,3,17,0,0,0,0,0
28,2,Stimuli\scenes\mainScenes\pexels-alexander-zvir-4252510.jpg,6,1362,z,L,1,1540,508,1645.6,613.6,3,2,0,1,10,4,1
28,2,Stimuli\scenes\mainScenes\pexels-jean-van-der-meulen-3753437.jpg,7,765,z,L,1,936,902,1041.6,1007.6,2,20,1,1,17,1,1
28,2,Stimuli\scenes\mainScenes\pexels-max-rahubovskiy-6956124.jpg,8,1116,/?,R,1,1148,914,1253.6,1019.6,2,10,0,1,20,3,1
28,2,Stimuli\scenes\mainScenes\pexels-max-rahubovskiy-7061393.jpg,9,1236,z,L,1,1562,118,1667.6,223.6,1,10,1,1,2,1,3
28,2,Stimuli\scenes\mainScenes\pexels-max-rahubovskiy-6312077.jpg,10,1226,/?,R,1,1684,638,1789.6,743.6,3,17,0,0,0,0,0
28,2,Stimuli\scenes\mainScenes\073_L_filler_absent_coffeemug.jpg,11,1521,/?,R,1,616,604,721.6,709.6,3,2,0,1,10,3,2
28,2,Stimuli\scenes\mainScenes\AdobeStock_479119675.jpeg,12,1940,/?,R,1,1472,158,1577.6,263.6,1,20,0,1,17,2,3
28,2,Stimuli\scenes\mainScenes\pexels-curtis-adams-4258272.jpg,13,991,/?,R,1,186,562,291.6,667.6,2,10,0,0,0,0,0
28,2,Stimuli\scenes\mainScenes\pexels-curtis-adams-7028072.jpg,14,1056,/?,R,1,950,842,1055.6,947.6,2,17,1,0,0,0,0
28,2,Stimuli\scenes\mainScenes\pexels-curtis-adams-7601172.jpg,15,758,/?,R,1,820,434,925.6,539.6,1,20,0,0,0,0,0
28,2,Stimuli\scenes\mainScenes\pexels-curtis-adams-15409439.jpg,16,1112,/?,R,1,1042,496,1147.6,601.6,3,2,0,1,10,3,1
28,2,Stimuli\scenes\mainScenes\AdobeStock_216902241.jpeg,17,1633,z,L,1,660,288,765.6,393.6,3,17,0,1,10,2,1
28,2,Stimuli\scenes\mainScenes\pexels-curtis-adams-5008398.jpg,18,954,/?,R,1,116,534,221.6,639.6,3,10,1,0,0,0,0
28,2,Stimuli\scenes\mainScenes\pexels-jean-van-der-meulen-1599791.jpg,19,1005,z,L,1,938,444,1043.6,549.6,1,20,0,0,0,0,0
28,2,Stimuli\scenes\mainScenes\pexels-mark-mccammon-2724749.jpg,20,1100,/?,L,0,1382,918,1487.6,1023.6,2,2,1,1,17,3,3
28,2,Stimuli\scenes\mainScenes\pexels-curtis-adams-3958964.jpg,21,2264,z,R,0,990,538,1095.6,643.6,3,17,0,0,0,0,0
28,2,Stimuli\scenes\mainScenes\pexels-curtis-adams-4119833.jpg,22,782,/?,R,1,820,934,925.6,1039.6,2,10,0,1,2,2,3
28,2,Stimuli\scenes\mainScenes\pexels-curtis-adams-8031902.jpg,23,1246,z,L,1,308,188,413.6,293.6,1,20,0,0,0,0,0
28,2,Stimuli\scenes\mainScenes\pexels-curtis-adams-5008407.jpg,24,920,z,L,1,104,590,209.6,695.6,3,2,0,1,17,2,2
28,2,Stimuli\scenes\mainScenes\pexels-curtis-adams-5900806.jpg,25,980,/?,R,1,406,310,511.6,415.6,1,20,0,1,17,4,2
28,2,Stimuli\scenes\mainScenes\pexels-curtis-adams-4221389.jpg,26,2077,z,L,1,1714,630,1819.6,735.6,3,17,0,0,0,0,0
28,2,Stimuli\scenes\mainScenes\pexels-curtis-adams-3990599.jpg,27,816,/?,R,1,680,516,785.6,621.6,2,10,0,1,2,1,3
28,2,Stimuli\scenes\mainScenes\pexels-curtis-adams-15062099.jpg,28,1215,z,L,1,538,582,643.6,687.6,3,2,0,1,20,4,3
28,2,Stimuli\scenes\mainScenes\pexels-ryan-donnelly-100575.jpg,29,1150,z,L,1,198,882,303.6,987.6,2,17,1,0,0,0,0
28,2,Stimuli\scenes\mainScenes\pexels-skitterphoto-349749.jpg,30,2210,z,L,1,698,848,803.6,953.6,2,20,1,1,17,1,3
28,2,Stimuli\scenes\mainScenes\pexels-loi-bui-trong-17181942.jpg,31,1001,/?,R,1,576,920,681.6,1025.6,2,10,0,0,0,0,0
28,2,Stimuli\scenes\mainScenes\pexels-loi-bui-trong-17158669.jpg,32,965,/?,R,1,738,606,843.6,711.6,3,2,0,0,0,0,0
28,2,Stimuli\scenes\mainScenes\pexels-curtis-adams-8583892.jpg,33,1334,/?,R,1,198,236,303.6,341.6,1,20,0,1,17,2,2
28,2,Stimuli\scenes\mainScenes\pexels-max-rahubovskiy-7060815.jpg,34,1137,z,L,1,786,564,891.6,669.6,3,17,0,1,20,4,2
28,2,Stimuli\scenes\mainScenes\pexels-curtis-adams-3935337.jpg,35,1659,/?,R,1,1528,776,1633.6,881.6,3,2,0,0,0,0,0
28,2,Stimuli\scenes\mainScenes\pexels-curtis-adams-10827337.jpg,36,1377,/?,R,1,648,914,753.6,1019.6,2,10,0,1,2,4,1
28,2,Stimuli\scenes\mainScenes\pexels-curtis-adams-7027852.jpg,37,1661,/?,R,1,1610,582,1715.6,687.6,3,17,0,0,0,0,0
28,2,Stimuli\scenes\mainScenes\pexels-keegan-checks-10117731.jpg,38,872,z,L,1,1154,932,1259.6,1037.6,2,10,0,0,0,0,0
28,2,Stimuli\scenes\mainScenes\036_L_filler_absent_bowl.jpg,39,836,/?,R,1,1528,932,1633.6,1037.6,2,20,1,1,17,2,1
28,2,Stimuli\scenes\mainScenes\pexels-max-rahubovskiy-7214338.jpg,40,987,z,L,1,1334,944,1439.6,1049.6,2,2,1,0,0,0,0
28,2,Stimuli\scenes\mainScenes\pexels-curtis-adams-4713243.jpg,41,890,z,L,1,672,894,777.6,999.6,3,17,0,1,20,4,3
28,2,Stimuli\scenes\mainScenes\pexels-alex-qian-2343467.jpg,42,799,/?,R,1,1202,910,1307.6,1015.6,2,20,1,1,2,4,3
28,2,Stimuli\scenes\mainScenes\pexels-pixabay-271647.jpg,43,1091,z,L,1,316,910,421.6,1015.6,2,10,0,0,0,0,0
28,2,Stimuli\scenes\mainScenes\pexels-max-rahubovskiy-8082201.jpg,44,1687,/?,R,1,426,526,531.6,631.6,3,2,0,1,20,4,2
28,2,Stimuli\scenes\mainScenes\pexels-curtis-adams-5502217.jpg,45,1307,z,L,1,1480,828,1585.6,933.6,3,17,0,0,0,0,0
28,2,Stimuli\scenes\mainScenes\pexels-max-rahubovskiy-6956843.jpg,46,729,z,R,0,568,508,673.6,613.6,3,2,0,1,20,4,1
28,2,Stimuli\scenes\mainScenes\pexels-max-rahubovskiy-7587482.jpg,47,963,z,L,1,664,282,769.6,387.6,1,20,0,0,0,0,0
28,2,Stimuli\scenes\mainScenes\AdobeStock_216902237.jpeg,48,901,/?,R,1,1254,226,1359.6,331.6,1,10,1,0,0,0,0
28,2,Stimuli\scenes\mainScenes\pexels-curtis-adams-7027760.jpg,49,1055,/?,R,1,562,838,667.6,943.6,3,17,0,1,2,3,1
28,2,Stimuli\scenes\mainScenes\pexels-get-lost-mike-8561916.jpg,50,2261,/?,R,1,1666,914,1771.6,1019.6,2,10,0,0,0,0,0
28,2,Stimuli\scenes\mainScenes\pexels-curtis-adams-4682110.jpg,51,2983,z,R,0,1160,688,1265.6,793.6,3,20,1,1,17,3,1
28,2,Stimuli\scenes\mainScenes\pexels-get-lost-mike-9993440.jpg,52,1111,z,L,1,1450,930,1555.6,1035.6,3,2,0,1,10,3,3
28,2,Stimuli\scenes\mainScenes\pexels-max-rahubovskiy-7005450.jpg,53,2054,/?,R,1,1034,802,1139.6,907.6,2,10,0,0,0,0,0
28,2,Stimuli\scenes\mainScenes\pexels-gustavo-galeano-maz-8363713.jpg,54,801,z,L,1,678,920,783.6,1025.6,2,20,1,0,0,0,0
28,2,Stimuli\scenes\mainScenes\pexels-max-rahubovskiy-7061668.jpg,55,710,z,L,1,1488,510,1593.6,615.6,3,17,0,1,10,4,1
28,2,Stimuli\scenes\mainScenes\pexels-jesse-bannister-7033835.jpg,56,1567,/?,R,1,1618,522,1723.6,627.6,3,2,0,0,0,0,0
28,2,Stimuli\scenes\mainScenes\AdobeStock_196997973.jpeg,57,2412,/?,R,1,1136,116,1241.6,221.6,1,20,0,1,17,1,3
28,2,Stimuli\scenes\mainScenes\AdobeStock_27579147.jpeg,58,1021,z,L,1,1454,832,1559.6,937.6,2,10,0,1,17,3,3
28,2,Stimuli\scenes\mainScenes\pexels-loi-bui-trong-17158648.jpg,59,850,z,R,0,586,514,691.6,619.6,3,17,0,0,0,0,0
28,2,Stimuli\scenes\mainScenes\pexels-curtis-adams-4800177.jpg,60,1496,z,L,1,360,678,465.6,783.6,2,2,1,0,0,0,0
