sub_num,run_num,file_name,trial_num,rt,response,t_direction,accuracy,target_position_1,target_position_2,target_position_3,target_position_4,target_location_type,target_number,trialTypeValid0Invalid1,trialTypeExtraTarget1NoExtraTarget0,extraTargetShapeNumber,extraTargetShapePosition,extraTargetShapeType
33,3,Stimuli\scenes\mainScenes\pexels-get-lost-mike-10450051.jpg,1,1240,/?,R,1,1048,868,1153.6,973.6,2,14,1,1,19,1,3
33,3,Stimuli\scenes\mainScenes\pexels-sharath-g-4722305.jpg,2,1074,z,L,1,1446,300,1551.6,405.6,1,6,0,0,0,0,0
33,3,Stimuli\scenes\mainScenes\pexels-gustavo-galeano-maz-11315956.jpg,3,815,z,L,1,914,950,1019.6,1055.6,2,7,0,0,0,0,0
33,3,Stimuli\scenes\mainScenes\pexels-max-rahubovskiy-7061668.jpg,4,858,z,L,1,1286,204,1391.6,309.6,1,19,1,0,0,0,0
33,3,Stimuli\scenes\mainScenes\pexels-gustavo-galeano-maz-8363713.jpg,5,1008,/?,R,1,678,920,783.6,1025.6,2,7,0,1,6,4,1
33,3,Stimuli\scenes\mainScenes\022_L_filler_absent_lamp.jpg,6,788,z,L,1,1568,318,1673.6,423.6,1,14,1,0,0,0,0
33,3,Stimuli\scenes\mainScenes\pexels-curtis-adams-4839334.jpg,7,767,/?,R,1,472,266,577.6,371.6,1,6,0,1,14,2,2
33,3,Stimuli\scenes\mainScenes\pexels-curtis-adams-8031902.jpg,8,1173,/?,L,0,148,688,253.6,793.6,3,19,0,0,0,0,0
33,3,Stimuli\scenes\mainScenes\pexels-loi-bui-trong-17181942.jpg,9,704,/?,R,1,918,262,1023.6,367.6,1,6,0,1,14,3,3
33,3,Stimuli\scenes\mainScenes\pexels-saviesa-home-2089698.jpg,10,1468,/?,R,1,534,446,639.6,551.6,3,14,0,0,0,0,0
33,3,Stimuli\scenes\mainScenes\pexels-denys-gromov-4716789.jpg,11,1147,/?,R,1,316,486,421.6,591.6,3,7,1,1,19,4,2
33,3,Stimuli\scenes\mainScenes\080_L_filler_absent_plant.jpg,12,1429,z,L,1,1170,542,1275.6,647.6,3,19,0,0,0,0,0
33,3,Stimuli\scenes\mainScenes\073_L_filler_absent_coffeemug.jpg,13,847,/?,R,1,616,604,721.6,709.6,3,7,1,1,14,2,1
33,3,Stimuli\scenes\mainScenes\pexels-max-rahubovskiy-6956843.jpg,14,877,z,L,1,568,508,673.6,613.6,3,6,1,0,0,0,0
33,3,Stimuli\scenes\mainScenes\pexels-max-rahubovskiy-7031868.jpg,15,1944,/?,R,1,108,660,213.6,765.6,3,14,0,1,19,4,1
33,3,Stimuli\scenes\mainScenes\pexels-max-rahubovskiy-6489116.jpg,16,714,z,L,1,430,522,535.6,627.6,3,19,0,1,6,3,1
33,3,Stimuli\scenes\mainScenes\pexels-curtis-adams-10827398.jpg,17,1288,/?,L,0,1572,662,1677.6,767.6,3,14,0,0,0,0,0
33,3,Stimuli\scenes\mainScenes\pexels-curtis-adams-7027852.jpg,18,1022,z,L,1,246,630,351.6,735.6,3,19,0,1,6,3,3
33,3,Stimuli\scenes\mainScenes\pexels-curtis-adams-4258272.jpg,19,1040,z,L,1,1724,318,1829.6,423.6,1,6,0,0,0,0,0
33,3,Stimuli\scenes\mainScenes\pexels-mark-mccammon-1080721.jpg,20,1467,/?,R,1,160,886,265.6,991.6,2,7,0,0,0,0,0
33,3,Stimuli\scenes\mainScenes\pexels-curtis-adams-3958964.jpg,21,1254,z,L,1,68,324,173.6,429.6,1,6,0,0,0,0,0
33,3,Stimuli\scenes\mainScenes\pexels-max-rahubovskiy-6312077.jpg,22,1917,/?,R,1,488,900,593.6,1005.6,2,14,1,1,7,3,1
33,3,Stimuli\scenes\mainScenes\pexels-curtis-adams-7027760.jpg,23,850,/?,R,1,860,732,965.6,837.6,2,7,0,1,14,3,1
33,3,Stimuli\scenes\mainScenes\pexels-curtis-adams-7027784.jpg,24,2020,/?,R,1,254,730,359.6,835.6,3,19,0,1,14,2,2
33,3,Stimuli\scenes\mainScenes\pexels-max-rahubovskiy-6969864.jpg,25,1106,/?,R,1,1740,324,1845.6,429.6,1,6,0,1,14,3,2
33,3,Stimuli\scenes\mainScenes\pexels-keegan-checks-10117731.jpg,26,950,/?,R,1,1290,548,1395.6,653.6,3,14,0,0,0,0,0
33,3,Stimuli\scenes\mainScenes\pexels-curtis-adams-15062099.jpg,27,764,z,L,1,538,582,643.6,687.6,3,19,0,0,0,0,0
33,3,Stimuli\scenes\mainScenes\pexels-jean-van-der-meulen-1599791.jpg,28,978,z,L,1,938,444,1043.6,549.6,1,7,1,0,0,0,0
33,3,Stimuli\scenes\mainScenes\pexels-curtis-adams-5900798.jpg,29,1744,/?,R,1,88,190,193.6,295.6,1,14,1,1,19,2,3
33,3,Stimuli\scenes\mainScenes\pexels-curtis-adams-7601072.jpg,30,846,/?,R,1,1298,510,1403.6,615.6,3,19,0,0,0,0,0
33,3,Stimuli\scenes\mainScenes\pexels-jesse-bannister-7033835.jpg,31,1004,z,L,1,284,696,389.6,801.6,2,7,0,1,14,3,2
33,3,Stimuli\scenes\mainScenes\pexels-get-lost-mike-8504308.jpg,32,861,z,L,1,1674,314,1779.6,419.6,1,6,0,1,14,4,2
33,3,Stimuli\scenes\mainScenes\pexels-loi-bui-trong-17158669.jpg,33,792,z,L,1,738,606,843.6,711.6,3,14,0,1,7,2,2
33,3,Stimuli\scenes\mainScenes\036_L_filler_absent_bowl.jpg,34,1530,z,L,1,1528,932,1633.6,1037.6,2,6,1,0,0,0,0
33,3,Stimuli\scenes\mainScenes\pexels-curtis-adams-8583892.jpg,35,874,z,L,1,324,542,429.6,647.6,3,19,0,0,0,0,0
33,3,Stimuli\scenes\mainScenes\pexels-curtis-adams-15062154.jpg,36,937,z,L,1,846,916,951.6,1021.6,2,7,0,0,0,0,0
33,3,Stimuli\scenes\mainScenes\pexels-curtis-adams-15409439.jpg,37,1032,/?,R,1,1042,496,1147.6,601.6,3,14,0,0,0,0,0
33,3,Stimuli\scenes\mainScenes\pexels-saviesa-home-2089698.jpg,38,727,z,L,1,534,446,639.6,551.6,3,19,0,1,7,4,2
33,3,Stimuli\scenes\mainScenes\pexels-curtis-adams-7027784.jpg,39,1516,z,L,1,1608,920,1713.6,1025.6,2,7,0,0,0,0,0
33,3,Stimuli\scenes\mainScenes\pexels-mark-mccammon-2724749.jpg,40,1029,z,L,1,1382,918,1487.6,1023.6,2,6,1,0,0,0,0
33,3,Stimuli\scenes\mainScenes\pexels-gustavo-galeano-maz-8363713.jpg,41,937,/?,R,1,604,550,709.6,655.6,3,14,0,1,7,4,1
33,3,Stimuli\scenes\mainScenes\pexels-curtis-adams-7601172.jpg,42,1303,/?,R,1,1612,834,1717.6,939.6,2,19,1,1,14,2,1
33,3,Stimuli\scenes\mainScenes\pexels-max-rahubovskiy-7061393.jpg,43,1687,z,L,1,1562,118,1667.6,223.6,1,6,0,1,7,1,3
33,3,Stimuli\scenes\mainScenes\pexels-mark-mccammon-1080721.jpg,44,1138,z,L,1,160,886,265.6,991.6,2,7,0,0,0,0,0
33,3,Stimuli\scenes\mainScenes\pexels-curtis-adams-3958964.jpg,45,965,/?,R,1,990,538,1095.6,643.6,3,14,0,0,0,0,0
33,3,Stimuli\scenes\mainScenes\pexels-loi-bui-trong-17158669.jpg,46,831,/?,R,1,1248,430,1353.6,535.6,1,6,0,1,19,1,3
33,3,Stimuli\scenes\mainScenes\pexels-get-lost-mike-10450051.jpg,47,1418,z,L,1,1450,660,1555.6,765.6,3,7,1,1,14,3,3
33,3,Stimuli\scenes\mainScenes\AdobeStock_196997973.jpeg,48,1319,/?,R,1,1506,552,1611.6,657.6,3,19,0,1,6,1,3
33,3,Stimuli\scenes\mainScenes\pexels-curtis-adams-4221389.jpg,49,NaN,nan,R,2,1714,630,1819.6,735.6,3,14,0,1,19,2,3
33,3,Stimuli\scenes\mainScenes\pexels-alexander-zvir-4252510.jpg,50,1292,z,L,1,1540,508,1645.6,613.6,3,19,0,0,0,0,0
33,3,Stimuli\scenes\mainScenes\pexels-curtis-adams-3935337.jpg,51,805,/?,R,1,948,188,1053.6,293.6,1,6,0,0,0,0,0
33,3,Stimuli\scenes\mainScenes\pexels-curtis-adams-4258272.jpg,52,935,z,L,1,794,910,899.6,1015.6,3,7,1,0,0,0,0
33,3,Stimuli\scenes\mainScenes\AdobeStock_27579147.jpeg,53,2032,/?,R,1,1282,470,1387.6,575.6,3,14,0,0,0,0,0
33,3,Stimuli\scenes\mainScenes\pexels-curtis-adams-6835079.jpg,54,889,/?,R,1,1010,910,1115.6,1015.6,2,7,0,1,6,3,3
33,3,Stimuli\scenes\mainScenes\pexels-level-media-3016430.jpg,55,1592,z,L,1,1628,362,1733.6,467.6,1,6,0,1,19,2,3
33,3,Stimuli\scenes\mainScenes\pexels-curtis-adams-8583875.jpg,56,1056,z,L,1,818,936,923.6,1041.6,2,19,1,0,0,0,0
33,3,Stimuli\scenes\mainScenes\036_L_filler_absent_bowl.jpg,57,2198,z,R,0,1396,536,1501.6,641.6,3,14,0,1,7,2,1
33,3,Stimuli\scenes\mainScenes\pexels-curtis-adams-4469153.jpg,58,1158,/?,R,1,1250,904,1355.6,1009.6,2,7,0,0,0,0,0
33,3,Stimuli\scenes\mainScenes\pexels-alex-qian-2343467.jpg,59,920,z,L,1,1494,436,1599.6,541.6,1,19,1,1,6,1,3
33,3,Stimuli\scenes\mainScenes\AdobeStock_461935168.jpeg,60,1166,/?,R,1,976,126,1081.6,231.6,1,6,0,0,0,0,0
