sub_num,run_num,file_name,trial_num,rt,response,t_direction,accuracy,target_position_1,target_position_2,target_position_3,target_position_4,target_location_type,target_number,trialTypeValid0Invalid1,trialTypeExtraTarget1NoExtraTarget0,extraTargetShapeNumber,extraTargetShapePosition,extraTargetShapeType
14,2,Stimuli\scenes\mainScenes\AdobeStock_27579147.jpeg,1,1065,z,L,1,1282,470,1387.6,575.6,3,16,0,1,22,4,2
14,2,Stimuli\scenes\mainScenes\pexels-alexander-zvir-4252510.jpg,2,1177,z,L,1,396,212,501.6,317.6,1,19,1,0,0,0,0
14,2,Stimuli\scenes\mainScenes\AdobeStock_106076039.jpeg,3,1846,z,L,1,1658,480,1763.6,585.6,3,13,0,0,0,0,0
14,2,Stimuli\scenes\mainScenes\AdobeStock_461935168.jpeg,4,1640,/?,R,1,976,126,1081.6,231.6,1,22,0,0,0,0,0
14,2,Stimuli\scenes\mainScenes\pexels-max-rahubovskiy-7060815.jpg,5,1114,z,L,1,1028,176,1133.6,281.6,1,16,1,1,19,2,3
14,2,Stimuli\scenes\mainScenes\pexels-curtis-adams-7027784.jpg,6,1390,z,L,1,1466,458,1571.6,563.6,1,22,0,1,19,4,1
14,2,Stimuli\scenes\mainScenes\pexels-curtis-adams-4800177.jpg,7,1184,/?,R,1,360,678,465.6,783.6,2,19,0,1,16,3,1
14,2,Stimuli\scenes\mainScenes\pexels-sharath-g-4722305.jpg,8,1463,z,L,1,498,634,603.6,739.6,3,13,0,0,0,0,0
14,2,Stimuli\scenes\mainScenes\pexels-curtis-adams-4258272.jpg,9,1168,/?,R,1,1724,318,1829.6,423.6,1,22,0,0,0,0,0
14,2,Stimuli\scenes\mainScenes\pexels-max-rahubovskiy-6980568.jpg,10,1194,/?,R,1,1260,120,1365.6,225.6,1,16,1,1,19,2,2
14,2,Stimuli\scenes\mainScenes\pexels-curtis-adams-15062154.jpg,11,1161,/?,R,1,846,916,951.6,1021.6,2,19,0,1,22,3,3
14,2,Stimuli\scenes\mainScenes\pexels-level-media-3016430.jpg,12,1279,/?,R,1,1628,892,1733.6,997.6,2,13,1,0,0,0,0
14,2,Stimuli\scenes\mainScenes\pexels-curtis-adams-4713242.jpg,13,981,/?,R,1,662,442,767.6,547.6,1,22,0,1,13,1,2
14,2,Stimuli\scenes\mainScenes\pexels-max-rahubovskiy-8082201.jpg,14,1500,z,L,1,34,900,139.6,1005.6,2,19,0,1,22,3,3
14,2,Stimuli\scenes\mainScenes\pexels-keegan-checks-10117731.jpg,15,1663,z,L,1,186,656,291.6,761.6,3,16,0,0,0,0,0
14,2,Stimuli\scenes\mainScenes\pexels-max-rahubovskiy-7061393.jpg,16,1037,/?,R,1,1602,844,1707.6,949.6,3,13,0,0,0,0,0
14,2,Stimuli\scenes\mainScenes\pexels-curtis-adams-7601172.jpg,17,1447,/?,R,1,336,728,441.6,833.6,3,16,0,1,19,2,1
14,2,Stimuli\scenes\mainScenes\pexels-curtis-adams-10827337.jpg,18,1266,/?,R,1,648,914,753.6,1019.6,2,19,0,0,0,0,0
14,2,Stimuli\scenes\mainScenes\AdobeStock_216902237.jpeg,19,2487,z,L,1,1438,388,1543.6,493.6,2,22,1,0,0,0,0
14,2,Stimuli\scenes\mainScenes\AdobeStock_214273596.jpeg,20,1246,z,L,1,380,730,485.6,835.6,3,13,0,1,22,3,2
14,2,Stimuli\scenes\mainScenes\036_L_filler_absent_bowl.jpg,21,1079,/?,R,1,342,854,447.6,959.6,2,19,0,1,16,3,3
14,2,Stimuli\scenes\mainScenes\041_L_filler_absent_fruit.jpg,22,1605,z,L,1,374,268,479.6,373.6,1,22,0,0,0,0,0
14,2,Stimuli\scenes\mainScenes\pexels-curtis-adams-8186477.jpg,23,1054,z,L,1,1062,608,1167.6,713.6,3,16,0,0,0,0,0
14,2,Stimuli\scenes\mainScenes\pexels-skitterphoto-349749.jpg,24,1100,z,R,0,158,340,263.6,445.6,1,13,1,1,22,1,3
14,2,Stimuli\scenes\mainScenes\pexels-max-rahubovskiy-6312078.jpg,25,1478,/?,R,1,128,468,233.6,573.6,1,19,1,0,0,0,0
14,2,Stimuli\scenes\mainScenes\pexels-max-rahubovskiy-7018399.jpg,26,1204,/?,R,1,1332,544,1437.6,649.6,3,16,0,0,0,0,0
14,2,Stimuli\scenes\mainScenes\pexels-curtis-adams-5900798.jpg,27,1149,z,L,1,414,934,519.6,1039.6,2,13,1,1,16,1,1
14,2,Stimuli\scenes\mainScenes\pexels-max-rahubovskiy-6312077.jpg,28,1847,z,L,1,1548,448,1653.6,553.6,1,22,0,0,0,0,0
14,2,Stimuli\scenes\mainScenes\pexels-curtis-adams-4713243.jpg,29,925,z,L,1,1158,608,1263.6,713.6,1,22,0,1,19,4,3
14,2,Stimuli\scenes\mainScenes\pexels-saviesa-home-2089698.jpg,30,1276,/?,R,1,476,820,581.6,925.6,2,19,0,0,0,0,0
14,2,Stimuli\scenes\mainScenes\pexels-denys-gromov-4716789.jpg,31,1767,/?,R,1,316,486,421.6,591.6,3,16,0,1,22,4,2
14,2,Stimuli\scenes\mainScenes\pexels-curtis-adams-3773573.jpg,32,1014,/?,R,1,280,684,385.6,789.6,3,13,0,1,22,4,1
14,2,Stimuli\scenes\mainScenes\pexels-curtis-adams-7027760.jpg,33,1591,/?,R,1,74,374,179.6,479.6,1,22,0,1,13,2,2
14,2,Stimuli\scenes\mainScenes\pexels-max-rahubovskiy-7031868.jpg,34,1852,z,L,1,1686,360,1791.6,465.6,1,16,1,1,19,4,1
14,2,Stimuli\scenes\mainScenes\pexels-curtis-adams-8583892.jpg,35,1958,/?,R,1,1504,622,1609.6,727.6,3,13,0,1,16,2,2
14,2,Stimuli\scenes\mainScenes\pexels-pixabay-271647.jpg,36,895,/?,R,1,538,394,643.6,499.6,1,19,1,0,0,0,0
14,2,Stimuli\scenes\mainScenes\pexels-max-rahubovskiy-7005450.jpg,37,1197,z,L,1,1520,524,1625.6,629.6,3,16,0,0,0,0,0
14,2,Stimuli\scenes\mainScenes\pexels-curtis-adams-4839334.jpg,38,1256,/?,R,1,106,618,211.6,723.6,2,19,0,0,0,0,0
14,2,Stimuli\scenes\mainScenes\pexels-max-rahubovskiy-6489116.jpg,39,1735,/?,R,1,1634,344,1739.6,449.6,1,22,0,1,19,1,2
14,2,Stimuli\scenes\mainScenes\pexels-curtis-adams-4469153.jpg,40,1270,/?,R,1,232,680,337.6,785.6,3,13,0,0,0,0,0
14,2,Stimuli\scenes\mainScenes\pexels-jesse-bannister-7033835.jpg,41,1486,/?,R,1,1618,522,1723.6,627.6,3,16,0,1,22,1,1
14,2,Stimuli\scenes\mainScenes\pexels-curtis-adams-7027786.jpg,42,1071,/?,R,1,1174,922,1279.6,1027.6,2,19,0,0,0,0,0
14,2,Stimuli\scenes\mainScenes\pexels-loi-bui-trong-17158669.jpg,43,1040,z,L,1,1248,430,1353.6,535.6,1,22,0,1,16,4,2
14,2,Stimuli\scenes\mainScenes\pexels-curtis-adams-4221389.jpg,44,1091,z,L,1,474,754,579.6,859.6,3,13,0,1,16,1,1
14,2,Stimuli\scenes\mainScenes\pexels-curtis-adams-5502217.jpg,45,1438,/?,R,1,110,724,215.6,829.6,2,22,1,1,19,2,3
14,2,Stimuli\scenes\mainScenes\pexels-get-lost-mike-8504308.jpg,46,1294,/?,R,1,1648,562,1753.6,667.6,3,16,0,0,0,0,0
14,2,Stimuli\scenes\mainScenes\pexels-max-rahubovskiy-7587482.jpg,47,1389,z,L,1,1240,916,1345.6,1021.6,2,19,0,0,0,0,0
14,2,Stimuli\scenes\mainScenes\pexels-curtis-adams-15062094.jpg,48,1352,z,L,1,574,298,679.6,403.6,1,13,1,0,0,0,0
14,2,Stimuli\scenes\mainScenes\pexels-loi-bui-trong-17158648.jpg,49,1076,/?,R,1,262,222,367.6,327.6,1,22,0,0,0,0,0
14,2,Stimuli\scenes\mainScenes\pexels-get-lost-mike-9993440.jpg,50,1270,z,L,1,254,594,359.6,699.6,1,16,1,1,13,3,3
14,2,Stimuli\scenes\mainScenes\pexels-curtis-adams-7027852.jpg,51,1030,z,L,1,246,630,351.6,735.6,3,13,0,0,0,0,0
14,2,Stimuli\scenes\mainScenes\pexels-jean-van-der-meulen-1599791.jpg,52,1566,z,L,1,850,922,955.6,1027.6,2,19,0,1,13,2,1
14,2,Stimuli\scenes\mainScenes\pexels-max-rahubovskiy-6956124.jpg,53,1365,z,L,1,1148,914,1253.6,1019.6,2,16,1,0,0,0,0
14,2,Stimuli\scenes\mainScenes\pexels-max-rahubovskiy-7061668.jpg,54,1726,z,L,1,1286,204,1391.6,309.6,1,22,0,1,13,2,1
14,2,Stimuli\scenes\mainScenes\pexels-curtis-adams-4682110.jpg,55,1206,z,L,1,386,500,491.6,605.6,3,13,0,1,19,1,3
14,2,Stimuli\scenes\mainScenes\pexels-curtis-adams-10827398.jpg,56,1031,/?,R,1,616,812,721.6,917.6,2,19,0,0,0,0,0
14,2,Stimuli\scenes\mainScenes\pexels-curtis-adams-15409439.jpg,57,2104,/?,R,1,1566,192,1671.6,297.6,1,22,0,1,19,4,2
14,2,Stimuli\scenes\mainScenes\pexels-get-lost-mike-10450051.jpg,58,1543,/?,R,1,1450,660,1555.6,765.6,3,16,0,0,0,0,0
14,2,Stimuli\scenes\mainScenes\073_L_filler_absent_coffeemug.jpg,59,2632,/?,R,1,474,290,579.6,395.6,1,13,1,0,0,0,0
14,2,Stimuli\scenes\mainScenes\pexels-mark-mccammon-2724749.jpg,60,1095,z,L,1,1382,918,1487.6,1023.6,2,19,0,0,0,0,0
