sub_num,run_num,file_name,trial_num,rt,response,t_direction,accuracy,target_position_1,target_position_2,target_position_3,target_position_4,target_location_type,target_number,trialTypeValid0Invalid1,trialTypeExtraTarget1NoExtraTarget0,extraTargetShapeNumber,extraTargetShapePosition,extraTargetShapeType
28,5,Stimuli\scenes\mainScenes\pexels-curtis-adams-7601072.jpg,1,867,z,L,1,590,926,695.6,1031.6,2,10,0,1,2,4,3
28,5,Stimuli\scenes\mainScenes\pexels-curtis-adams-5502217.jpg,2,1160,/?,R,1,1480,828,1585.6,933.6,3,17,0,0,0,0,0
28,5,Stimuli\scenes\mainScenes\pexels-alex-qian-2343467.jpg,3,1018,z,L,1,1494,436,1599.6,541.6,1,20,0,0,0,0,0
28,5,Stimuli\scenes\mainScenes\pexels-terry-magallanes-3623785.jpg,4,782,z,L,1,528,442,633.6,547.6,3,2,0,0,0,0,0
28,5,Stimuli\scenes\mainScenes\pexels-curtis-adams-6835139.jpg,5,1526,/?,R,1,1614,792,1719.6,897.6,3,17,0,1,2,3,1
28,5,Stimuli\scenes\mainScenes\pexels-curtis-adams-8583875.jpg,6,601,z,L,1,766,578,871.6,683.6,3,2,0,1,17,2,2
28,5,Stimuli\scenes\mainScenes\AdobeStock_461935168.jpeg,7,1377,/?,R,1,976,126,1081.6,231.6,1,20,0,0,0,0,0
28,5,Stimuli\scenes\mainScenes\pexels-max-rahubovskiy-7005450.jpg,8,720,z,L,1,1034,802,1139.6,907.6,2,10,0,0,0,0,0
28,5,Stimuli\scenes\mainScenes\pexels-curtis-adams-7601172.jpg,9,896,/?,R,1,1300,276,1405.6,381.6,1,10,1,1,2,2,1
28,5,Stimuli\scenes\mainScenes\pexels-get-lost-mike-8504308.jpg,10,818,z,R,0,1674,314,1779.6,419.6,1,20,0,0,0,0,0
28,5,Stimuli\scenes\mainScenes\pexels-curtis-adams-4469153.jpg,11,1484,z,L,1,232,680,337.6,785.6,3,17,0,1,20,1,2
28,5,Stimuli\scenes\mainScenes\pexels-curtis-adams-7027784.jpg,12,1078,/?,R,1,1608,920,1713.6,1025.6,2,2,1,0,0,0,0
28,5,Stimuli\scenes\mainScenes\pexels-curtis-adams-10827398.jpg,13,1242,z,L,1,1572,662,1677.6,767.6,3,17,0,1,10,4,1
28,5,Stimuli\scenes\mainScenes\pexels-curtis-adams-4682110.jpg,14,1137,z,L,1,532,204,637.6,309.6,1,20,0,0,0,0,0
28,5,Stimuli\scenes\mainScenes\pexels-mark-mccammon-1080721.jpg,15,1235,/?,R,1,160,886,265.6,991.6,2,10,0,1,20,1,3
28,5,Stimuli\scenes\mainScenes\073_L_filler_absent_coffeemug.jpg,16,998,z,L,1,1214,430,1319.6,535.6,3,2,0,1,17,1,3
28,5,Stimuli\scenes\mainScenes\pexels-curtis-adams-4469153.jpg,17,1252,z,L,1,1250,904,1355.6,1009.6,2,17,1,1,2,2,2
28,5,Stimuli\scenes\mainScenes\pexels-alexander-zvir-4252510.jpg,18,1144,z,L,1,1540,508,1645.6,613.6,3,2,0,0,0,0,0
28,5,Stimuli\scenes\mainScenes\AdobeStock_479119675.jpeg,19,899,z,L,1,1472,158,1577.6,263.6,1,20,0,0,0,0,0
28,5,Stimuli\scenes\mainScenes\pexels-curtis-adams-3990599.jpg,20,1196,z,L,1,864,72,969.6,177.6,1,10,1,0,0,0,0
28,5,Stimuli\scenes\mainScenes\pexels-curtis-adams-4713243.jpg,21,766,z,R,0,1354,888,1459.6,993.6,2,10,0,1,2,2,1
28,5,Stimuli\scenes\mainScenes\pexels-gustavo-galeano-maz-11315956.jpg,22,1094,/?,R,1,1394,522,1499.6,627.6,3,17,0,0,0,0,0
28,5,Stimuli\scenes\mainScenes\036_L_filler_absent_bowl.jpg,23,1104,/?,L,0,430,232,535.6,337.6,1,2,1,1,10,4,2
28,5,Stimuli\scenes\mainScenes\pexels-get-lost-mike-8561916.jpg,24,1185,/?,R,1,150,720,255.6,825.6,3,20,1,0,0,0,0
28,5,Stimuli\scenes\mainScenes\pexels-max-rahubovskiy-7214338.jpg,25,969,z,L,1,230,960,335.6,1065.6,2,10,0,0,0,0,0
28,5,Stimuli\scenes\mainScenes\AdobeStock_106076039.jpeg,26,1202,z,L,1,478,694,583.6,799.6,3,17,0,1,20,4,2
28,5,Stimuli\scenes\mainScenes\pexels-curtis-adams-7028072.jpg,27,1034,z,L,1,1188,146,1293.6,251.6,1,20,0,0,0,0,0
28,5,Stimuli\scenes\mainScenes\pexels-curtis-adams-6835139.jpg,28,737,/?,R,1,246,756,351.6,861.6,3,2,0,1,10,2,3
28,5,Stimuli\scenes\mainScenes\080_L_filler_absent_plant.jpg,29,2740,z,L,1,1170,542,1275.6,647.6,3,10,1,0,0,0,0
28,5,Stimuli\scenes\mainScenes\pexels-curtis-adams-8583892.jpg,30,913,z,L,1,324,542,429.6,647.6,3,17,0,0,0,0,0
28,5,Stimuli\scenes\mainScenes\pexels-max-rahubovskiy-7587482.jpg,31,787,/?,R,1,1396,536,1501.6,641.6,3,2,0,1,17,1,3
28,5,Stimuli\scenes\mainScenes\pexels-jesse-bannister-7033835.jpg,32,927,z,L,1,418,370,523.6,475.6,1,20,0,1,2,2,3
28,5,Stimuli\scenes\mainScenes\pexels-loi-bui-trong-17158669.jpg,33,945,/?,R,1,304,746,409.6,851.6,2,20,1,1,2,3,1
28,5,Stimuli\scenes\mainScenes\pexels-skitterphoto-349749.jpg,34,2932,/?,R,1,1704,598,1809.6,703.6,3,17,0,0,0,0,0
28,5,Stimuli\scenes\mainScenes\pexels-max-rahubovskiy-6782481.jpg,35,1061,z,L,1,1028,938,1133.6,1043.6,2,10,0,1,2,1,3
28,5,Stimuli\scenes\mainScenes\pexels-curtis-adams-7027786.jpg,36,1275,/?,R,1,290,744,395.6,849.6,3,2,0,0,0,0,0
28,5,Stimuli\scenes\mainScenes\pexels-level-media-3016430.jpg,37,1133,/?,R,1,1628,892,1733.6,997.6,2,20,1,1,2,1,3
28,5,Stimuli\scenes\mainScenes\pexels-max-rahubovskiy-7061393.jpg,38,1119,z,R,0,396,728,501.6,833.6,3,17,0,1,2,1,3
28,5,Stimuli\scenes\mainScenes\pexels-curtis-adams-15062099.jpg,39,995,/?,R,1,1444,918,1549.6,1023.6,2,10,0,0,0,0,0
28,5,Stimuli\scenes\mainScenes\AdobeStock_41005076.jpeg,40,1260,z,L,1,1530,528,1635.6,633.6,3,2,0,1,10,4,2
28,5,Stimuli\scenes\mainScenes\pexels-get-lost-mike-8504308.jpg,41,1405,z,L,1,1414,928,1519.6,1033.6,2,17,1,0,0,0,0
28,5,Stimuli\scenes\mainScenes\pexels-max-rahubovskiy-6956843.jpg,42,1229,/?,R,1,568,508,673.6,613.6,3,2,0,0,0,0,0
28,5,Stimuli\scenes\mainScenes\pexels-curtis-adams-4839334.jpg,43,903,/?,R,1,1240,884,1345.6,989.6,2,10,0,0,0,0,0
28,5,Stimuli\scenes\mainScenes\pexels-curtis-adams-5900806.jpg,44,1184,/?,R,1,406,310,511.6,415.6,1,20,0,1,17,4,2
28,5,Stimuli\scenes\mainScenes\pexels-curtis-adams-5353944.jpg,45,1177,/?,R,1,1716,554,1821.6,659.6,3,17,0,1,20,1,3
28,5,Stimuli\scenes\mainScenes\pexels-jean-van-der-meulen-3753437.jpg,46,1204,/?,R,1,1290,690,1395.6,795.6,2,20,1,1,17,1,1
28,5,Stimuli\scenes\mainScenes\pexels-curtis-adams-15062094.jpg,47,1329,z,L,1,1230,578,1335.6,683.6,3,2,0,0,0,0,0
28,5,Stimuli\scenes\mainScenes\pexels-curtis-adams-3935337.jpg,48,829,z,L,1,998,672,1103.6,777.6,2,10,0,1,20,2,3
28,5,Stimuli\scenes\mainScenes\pexels-max-rahubovskiy-6956124.jpg,49,1088,z,L,1,1402,610,1507.6,715.6,3,20,1,0,0,0,0
28,5,Stimuli\scenes\mainScenes\pexels-max-rahubovskiy-6312077.jpg,50,1363,/?,R,1,1684,638,1789.6,743.6,3,17,0,0,0,0,0
28,5,Stimuli\scenes\mainScenes\pexels-jean-van-der-meulen-1599791.jpg,51,831,z,L,1,1128,738,1233.6,843.6,3,2,0,1,20,4,3
28,5,Stimuli\scenes\mainScenes\pexels-get-lost-mike-9993440.jpg,52,686,z,L,1,860,678,965.6,783.6,2,10,0,0,0,0,0
28,5,Stimuli\scenes\mainScenes\pexels-get-lost-mike-10450051.jpg,53,683,z,L,1,1048,868,1153.6,973.6,2,10,0,0,0,0,0
28,5,Stimuli\scenes\mainScenes\pexels-curtis-adams-4800177.jpg,54,1624,/?,R,1,1478,692,1583.6,797.6,3,17,0,1,20,2,2
28,5,Stimuli\scenes\mainScenes\pexels-max-rahubovskiy-7061668.jpg,55,1016,/?,R,1,1286,204,1391.6,309.6,1,20,0,1,10,3,3
28,5,Stimuli\scenes\mainScenes\pexels-curtis-adams-7027760.jpg,56,1225,z,L,1,562,838,667.6,943.6,3,2,0,1,20,4,2
28,5,Stimuli\scenes\mainScenes\pexels-terry-magallanes-3623785.jpg,57,1160,/?,R,1,1518,212,1623.6,317.6,1,17,1,0,0,0,0
28,5,Stimuli\scenes\mainScenes\pexels-max-rahubovskiy-7005450.jpg,58,1867,/?,R,1,1034,802,1139.6,907.6,2,10,0,0,0,0,0
28,5,Stimuli\scenes\mainScenes\pexels-curtis-adams-8031902.jpg,59,1345,/?,R,1,308,188,413.6,293.6,1,20,0,0,0,0,0
28,5,Stimuli\scenes\mainScenes\pexels-curtis-adams-6835079.jpg,60,695,/?,R,1,508,344,613.6,449.6,1,2,1,1,17,1,3
