sub_num,run_num,file_name,trial_num,rt,response,t_direction,accuracy,target_position_1,target_position_2,target_position_3,target_position_4,target_location_type,target_number,trialTypeValid0Invalid1,trialTypeExtraTarget1NoExtraTarget0,extraTargetShapeNumber,extraTargetShapePosition,extraTargetShapeType
22,4,Stimuli\scenes\mainScenes\pexels-max-rahubovskiy-6980568.jpg,1,832,z,L,1,778,450,883.6,555.6,1,22,1,1,7,2,2
22,4,Stimuli\scenes\mainScenes\pexels-max-rahubovskiy-6956124.jpg,2,990,/?,R,1,1402,610,1507.6,715.6,3,6,0,1,18,4,3
22,4,Stimuli\scenes\mainScenes\pexels-loi-bui-trong-17181942.jpg,3,1175,z,L,1,246,670,351.6,775.6,3,7,0,0,0,0,0
22,4,Stimuli\scenes\mainScenes\pexels-get-lost-mike-9993440.jpg,4,1448,/?,R,1,254,594,359.6,699.6,1,18,0,1,22,4,2
22,4,Stimuli\scenes\mainScenes\pexels-get-lost-mike-10450051.jpg,5,1014,/?,R,1,1450,660,1555.6,765.6,3,6,0,0,0,0,0
22,4,Stimuli\scenes\mainScenes\pexels-curtis-adams-6835139.jpg,6,1373,/?,R,1,820,800,925.6,905.6,2,22,0,1,18,2,3
22,4,Stimuli\scenes\mainScenes\pexels-max-rahubovskiy-6782481.jpg,7,790,/?,R,1,646,522,751.6,627.6,1,18,0,0,0,0,0
22,4,Stimuli\scenes\mainScenes\pexels-sharath-g-4722305.jpg,8,1043,z,L,1,422,960,527.6,1065.6,2,7,1,0,0,0,0
22,4,Stimuli\scenes\mainScenes\pexels-curtis-adams-5008407.jpg,9,1050,/?,R,1,774,192,879.6,297.6,1,18,0,1,22,2,2
22,4,Stimuli\scenes\mainScenes\pexels-curtis-adams-3958964.jpg,10,640,/?,R,1,990,538,1095.6,643.6,3,6,0,0,0,0,0
22,4,Stimuli\scenes\mainScenes\pexels-max-rahubovskiy-7061393.jpg,11,800,z,L,1,982,884,1087.6,989.6,2,22,0,0,0,0,0
22,4,Stimuli\scenes\mainScenes\pexels-max-rahubovskiy-6312077.jpg,12,1312,z,L,1,1684,638,1789.6,743.6,3,7,0,1,6,2,2
22,4,Stimuli\scenes\mainScenes\pexels-curtis-adams-7027784.jpg,13,876,/?,R,1,1466,458,1571.6,563.6,1,22,1,1,6,4,1
22,4,Stimuli\scenes\mainScenes\pexels-curtis-adams-4469155.jpg,14,1123,/?,R,1,468,534,573.6,639.6,3,6,0,1,7,2,2
22,4,Stimuli\scenes\mainScenes\pexels-terry-magallanes-3623785.jpg,15,1096,/?,R,1,1070,902,1175.6,1007.6,2,7,1,0,0,0,0
22,4,Stimuli\scenes\mainScenes\AdobeStock_216902241.jpeg,16,1180,z,L,1,1698,222,1803.6,327.6,1,18,0,0,0,0,0
22,4,Stimuli\scenes\mainScenes\pexels-curtis-adams-7027760.jpg,17,695,/?,R,1,562,838,667.6,943.6,3,6,0,0,0,0,0
22,4,Stimuli\scenes\mainScenes\pexels-curtis-adams-10827337.jpg,18,652,/?,R,1,1026,624,1131.6,729.6,3,7,0,1,18,2,2
22,4,Stimuli\scenes\mainScenes\pexels-curtis-adams-8583875.jpg,19,682,/?,R,1,766,578,871.6,683.6,3,18,1,1,22,2,2
22,4,Stimuli\scenes\mainScenes\pexels-ryan-donnelly-100575.jpg,20,1761,/?,R,1,198,882,303.6,987.6,2,22,0,0,0,0,0
22,4,Stimuli\scenes\mainScenes\pexels-jean-van-der-meulen-3753437.jpg,21,745,z,L,1,936,902,1041.6,1007.6,2,22,0,0,0,0,0
22,4,Stimuli\scenes\mainScenes\pexels-curtis-adams-15062154.jpg,22,1492,z,L,1,534,340,639.6,445.6,1,18,0,1,6,3,3
22,4,Stimuli\scenes\mainScenes\pexels-curtis-adams-15062099.jpg,23,771,z,L,1,1092,414,1197.6,519.6,1,6,1,0,0,0,0
22,4,Stimuli\scenes\mainScenes\pexels-curtis-adams-8031902.jpg,24,919,z,L,1,982,530,1087.6,635.6,3,7,0,1,6,3,1
22,4,Stimuli\scenes\mainScenes\pexels-curtis-adams-8186477.jpg,25,1489,z,L,1,1298,954,1403.6,1059.6,2,22,0,0,0,0,0
22,4,Stimuli\scenes\mainScenes\pexels-max-rahubovskiy-7214338.jpg,26,805,/?,R,1,1334,548,1439.6,653.6,3,6,0,1,22,3,1
22,4,Stimuli\scenes\mainScenes\pexels-curtis-adams-3935337.jpg,27,893,z,L,1,258,566,363.6,671.6,3,7,0,0,0,0,0
22,4,Stimuli\scenes\mainScenes\pexels-curtis-adams-7601072.jpg,28,786,/?,R,1,1400,248,1505.6,353.6,1,18,0,1,22,4,3
22,4,Stimuli\scenes\mainScenes\pexels-keegan-checks-10117731.jpg,29,890,z,L,1,638,334,743.6,439.6,1,18,0,0,0,0,0
22,4,Stimuli\scenes\mainScenes\pexels-alex-qian-2343467.jpg,30,1078,z,L,1,1202,910,1307.6,1015.6,2,6,1,0,0,0,0
22,4,Stimuli\scenes\mainScenes\pexels-curtis-adams-8583892.jpg,31,784,z,L,1,878,892,983.6,997.6,2,22,0,1,6,3,3
22,4,Stimuli\scenes\mainScenes\pexels-curtis-adams-3773573.jpg,32,1097,/?,R,1,986,920,1091.6,1025.6,2,7,1,1,6,4,1
22,4,Stimuli\scenes\mainScenes\pexels-max-rahubovskiy-7060815.jpg,33,1332,/?,R,1,786,564,891.6,669.6,3,6,0,0,0,0,0
22,4,Stimuli\scenes\mainScenes\pexels-max-rahubovskiy-7005450.jpg,34,1558,z,L,1,1520,524,1625.6,629.6,3,7,0,1,6,2,2
22,4,Stimuli\scenes\mainScenes\pexels-max-rahubovskiy-6312078.jpg,35,777,/?,R,1,1014,852,1119.6,957.6,2,18,1,0,0,0,0
22,4,Stimuli\scenes\mainScenes\AdobeStock_214273596.jpeg,36,1394,z,R,0,380,730,485.6,835.6,3,22,1,1,18,4,3
22,4,Stimuli\scenes\mainScenes\AdobeStock_27579147.jpeg,37,1195,z,L,1,1454,832,1559.6,937.6,2,22,0,1,18,3,3
22,4,Stimuli\scenes\mainScenes\pexels-max-rahubovskiy-7061668.jpg,38,1647,/?,R,1,1286,204,1391.6,309.6,1,18,0,1,6,2,1
22,4,Stimuli\scenes\mainScenes\pexels-curtis-adams-5502217.jpg,39,1892,/?,R,1,1480,828,1585.6,933.6,3,6,0,0,0,0,0
22,4,Stimuli\scenes\mainScenes\pexels-curtis-adams-10827398.jpg,40,1201,z,L,1,1572,662,1677.6,767.6,3,7,0,0,0,0,0
22,4,Stimuli\scenes\mainScenes\pexels-max-rahubovskiy-7587482.jpg,41,1336,/?,R,1,664,282,769.6,387.6,1,22,1,1,7,4,3
22,4,Stimuli\scenes\mainScenes\pexels-curtis-adams-6835079.jpg,42,1308,z,L,1,508,344,613.6,449.6,1,18,0,0,0,0,0
22,4,Stimuli\scenes\mainScenes\041_L_filler_absent_fruit.jpg,43,1197,/?,R,1,374,744,479.6,849.6,3,6,0,1,18,3,1
22,4,Stimuli\scenes\mainScenes\pexels-jesse-bannister-7033835.jpg,44,1125,z,L,1,1618,522,1723.6,627.6,3,7,0,1,18,4,2
22,4,Stimuli\scenes\mainScenes\pexels-curtis-adams-4119833.jpg,45,1152,z,L,1,1426,910,1531.6,1015.6,3,6,0,0,0,0,0
22,4,Stimuli\scenes\mainScenes\pexels-pixabay-271647.jpg,46,1674,/?,R,1,1518,362,1623.6,467.6,1,18,0,0,0,0,0
22,4,Stimuli\scenes\mainScenes\pexels-max-rahubovskiy-8082201.jpg,47,1374,/?,R,1,1386,664,1491.6,769.6,3,7,0,1,22,4,2
22,4,Stimuli\scenes\mainScenes\080_L_filler_absent_plant.jpg,48,1353,z,L,1,756,212,861.6,317.6,1,22,1,0,0,0,0
22,4,Stimuli\scenes\mainScenes\022_L_filler_absent_lamp.jpg,49,1443,z,R,0,1568,318,1673.6,423.6,1,18,0,1,22,2,3
22,4,Stimuli\scenes\mainScenes\pexels-loi-bui-trong-17158648.jpg,50,799,/?,R,1,586,514,691.6,619.6,3,6,0,0,0,0,0
22,4,Stimuli\scenes\mainScenes\AdobeStock_216902237.jpeg,51,1654,z,L,1,1730,678,1835.6,783.6,2,22,0,0,0,0,0
22,4,Stimuli\scenes\mainScenes\pexels-jean-van-der-meulen-1599791.jpg,52,965,z,L,1,938,444,1043.6,549.6,1,7,1,0,0,0,0
22,4,Stimuli\scenes\mainScenes\pexels-gustavo-galeano-maz-11315956.jpg,53,1415,/?,R,1,180,380,285.6,485.6,1,18,0,1,7,4,1
22,4,Stimuli\scenes\mainScenes\pexels-curtis-adams-5900798.jpg,54,861,/?,R,1,1580,532,1685.6,637.6,3,6,0,1,18,1,1
22,4,Stimuli\scenes\mainScenes\pexels-saviesa-home-2089698.jpg,55,1043,z,L,1,712,328,817.6,433.6,1,7,1,1,22,2,3
22,4,Stimuli\scenes\mainScenes\pexels-curtis-adams-5353944.jpg,56,1337,z,L,1,1550,928,1655.6,1033.6,2,22,0,0,0,0,0
22,4,Stimuli\scenes\mainScenes\pexels-alexander-zvir-4252510.jpg,57,1788,z,L,1,1540,508,1645.6,613.6,3,22,1,0,0,0,0
22,4,Stimuli\scenes\mainScenes\pexels-max-rahubovskiy-6969864.jpg,58,727,z,L,1,1156,476,1261.6,581.6,3,6,0,0,0,0,0
22,4,Stimuli\scenes\mainScenes\pexels-curtis-adams-4682110.jpg,59,1113,/?,R,1,1160,688,1265.6,793.6,3,7,0,0,0,0,0
22,4,Stimuli\scenes\mainScenes\AdobeStock_479119675.jpeg,60,1326,z,L,1,1472,158,1577.6,263.6,1,18,0,1,6,2,3
