"","sub_num","run_num","file_name","trial_num","rt","response","t_direction","accuracy","target_position_1","target_position_2","target_position_3","target_position_4","target_location_type","target_number","trialTypeValid0Invalid1","trialTypeExtraTarget1NoExtraTarget0","extraTargetShapeNumber","extraTargetShapePosition","extraTargetShapeType"
"2",1,1,"Stimuli\scenes\practiceScenes\pexels-curtis-adams-15062155.jpg",1,6632,"/?","R",1,1156,128,1252,224,1,11,0,0,0,0,0
"3",1,1,"Stimuli\scenes\practiceScenes\pexels-keegan-checks-10117737.jpg",2,2434,"z","L",1,1532,956,1628,1052,2,19,0,0,0,0,0
"4",1,1,"Stimuli\scenes\practiceScenes\pexels-christa-grover-2001944.jpg",3,2506,"z","L",1,1436,540,1532,636,3,12,0,0,0,0,0
"5",1,1,"Stimuli\scenes\practiceScenes\075_L_filler_absent_light.jpg",4,2081,"z","L",1,656,436,752,532,1,1,0,0,0,0,0
"6",1,1,"Stimuli\scenes\practiceScenes\pexels-curtis-adams-6510985.jpg",5,1643,"z","L",1,1590,686,1686,782,3,12,0,0,0,0,0
"7",1,1,"Stimuli\scenes\practiceScenes\pexels-curtis-adams-5502249.jpg",6,1770,"z","L",1,686,124,782,220,1,11,0,0,0,0,0
"8",1,1,"Stimuli\scenes\practiceScenes\pexels-max-rahubovskiy-6969860.jpg",7,1281,"/?","R",1,912,130,1008,226,1,1,0,0,0,0,0
"9",1,1,"Stimuli\scenes\practiceScenes\pexels-curtis-adams-5698015.jpg",8,1919,"/?","R",1,1472,948,1568,1044,2,19,0,0,0,0,0
"10",1,1,"Stimuli\scenes\practiceScenes\AdobeStock_133612805.jpeg",9,2012,"/?","R",1,174,342,270,438,1,11,0,0,0,0,0
"11",1,1,"Stimuli\scenes\practiceScenes\pexels-curtis-adams-8583543.jpg",10,2156,"z","L",1,190,42,286,138,1,1,0,0,0,0,0
"12",1,1,"Stimuli\scenes\practiceScenes\pexels-pixabay-279648.jpg",11,1856,"/?","R",1,1756,478,1852,574,3,12,0,0,0,0,0
"13",1,1,"Stimuli\scenes\practiceScenes\AdobeStock_490760493.jpeg",12,1628,"z","L",1,1260,708,1356,804,2,19,0,0,0,0,0
"14",1,1,"Stimuli\scenes\practiceScenes\pexels-hakim-santoso-3634740.jpg",13,1492,"/?","R",1,896,922,992,1018,2,19,0,0,0,0,0
"15",1,1,"Stimuli\scenes\practiceScenes\pexels-curtis-adams-5353881.jpg",14,1531,"/?","R",1,110,456,206,552,1,11,0,0,0,0,0
"16",1,1,"Stimuli\scenes\practiceScenes\pexels-curtis-adams-8186506.jpg",15,1830,"z","L",1,1398,398,1494,494,1,1,0,0,0,0,0
"17",1,1,"Stimuli\scenes\practiceScenes\pexels-curtis-adams-14495889.jpg",16,1472,"/?","R",1,1094,794,1190,890,3,12,0,0,0,0,0
"18",1,1,"Stimuli\scenes\practiceScenes\AdobeStock_142522611.jpeg",17,1591,"z","L",1,764,314,860,410,1,11,0,0,0,0,0
"19",1,1,"Stimuli\scenes\practiceScenes\AdobeStock_283829914.jpeg",18,1112,"z","L",1,400,476,496,572,3,12,0,0,0,0,0
"20",1,1,"Stimuli\scenes\practiceScenes\AdobeStock_67849508.jpeg",19,1018,"/?","R",1,1112,670,1208,766,2,19,0,0,0,0,0
"21",1,1,"Stimuli\scenes\practiceScenes\pexels-curtis-adams-3958951.jpg",20,994,"z","L",1,634,42,730,138,1,1,0,0,0,0,0
"22",1,1,"Stimuli\scenes\practiceScenes\077_L_filler_absent_footrest.jpg",21,1924,"/?","R",1,72,380,168,476,1,11,0,0,0,0,0
"23",1,1,"Stimuli\scenes\practiceScenes\AdobeStock_300087971.jpeg",22,1501,"z","L",1,1576,572,1672,668,3,12,0,0,0,0,0
"24",1,1,"Stimuli\scenes\practiceScenes\079_L_filler_absent_bowl.jpg",23,1359,"z","L",1,1674,786,1770,882,2,19,0,0,0,0,0
"25",1,1,"Stimuli\scenes\practiceScenes\pexels-curtis-adams-10099319.jpg",24,1549,"/?","R",1,1664,46,1760,142,1,1,0,0,0,0,0
"26",1,2,"Stimuli\scenes\mainScenes\pexels-curtis-adams-7027852.jpg",1,1307,"/?","R",1,1180,380,1285.6,485.6,1,11,0,1,19,3,3
"27",1,2,"Stimuli\scenes\mainScenes\pexels-keegan-checks-10117731.jpg",2,1059,"z","L",1,638,334,743.6,439.6,1,19,1,0,0,0,0
"28",1,2,"Stimuli\scenes\mainScenes\pexels-get-lost-mike-8561916.jpg",3,1198,"z","L",1,254,206,359.6,311.6,1,1,0,1,12,1,3
"29",1,2,"Stimuli\scenes\mainScenes\pexels-jean-van-der-meulen-1599791.jpg",4,923,"/?","R",1,1128,738,1233.6,843.6,3,12,0,0,0,0,0
"30",1,2,"Stimuli\scenes\mainScenes\pexels-level-media-3016430.jpg",5,838,"/?","R",1,912,662,1017.6,767.6,3,12,0,0,0,0,0
"31",1,2,"Stimuli\scenes\mainScenes\pexels-curtis-adams-5008398.jpg",6,1118,"z","L",1,138,84,243.6,189.6,1,11,0,0,0,0,0
"32",1,2,"Stimuli\scenes\mainScenes\pexels-max-rahubovskiy-6489116.jpg",7,1175,"z","L",1,214,912,319.6,1017.6,2,19,0,1,12,4,3
"33",1,2,"Stimuli\scenes\mainScenes\pexels-curtis-adams-6835079.jpg",8,1055,"z","L",1,1656,510,1761.6,615.6,3,1,1,1,19,3,3
"34",1,2,"Stimuli\scenes\mainScenes\pexels-loi-bui-trong-17181942.jpg",9,758,"z","L",1,918,262,1023.6,367.6,1,11,0,0,0,0,0
"35",1,2,"Stimuli\scenes\mainScenes\pexels-loi-bui-trong-17158669.jpg",10,1008,"/?","R",1,1248,430,1353.6,535.6,1,1,0,1,11,2,2
"36",1,2,"Stimuli\scenes\mainScenes\pexels-max-rahubovskiy-8082201.jpg",11,871,"/?","R",1,426,526,531.6,631.6,3,12,0,0,0,0,0
"37",1,2,"Stimuli\scenes\mainScenes\pexels-loi-bui-trong-17158648.jpg",12,987,"/?","R",1,586,514,691.6,619.6,3,19,1,1,12,3,1
"38",1,2,"Stimuli\scenes\mainScenes\pexels-max-rahubovskiy-6782481.jpg",13,795,"/?","R",1,646,522,751.6,627.6,1,11,0,0,0,0,0
"39",1,2,"Stimuli\scenes\mainScenes\pexels-max-rahubovskiy-7061393.jpg",14,987,"z","L",1,982,884,1087.6,989.6,2,12,1,0,0,0,0
"40",1,2,"Stimuli\scenes\mainScenes\pexels-curtis-adams-8583892.jpg",15,981,"z","L",1,878,892,983.6,997.6,2,19,0,1,1,3,3
"41",1,2,"Stimuli\scenes\mainScenes\AdobeStock_216902237.jpeg",16,1381,"/?","R",1,1254,226,1359.6,331.6,1,1,0,1,12,2,2
"42",1,2,"Stimuli\scenes\mainScenes\pexels-get-lost-mike-8504308.jpg",17,1534,"z","L",1,1648,562,1753.6,667.6,3,12,0,0,0,0,0
"43",1,2,"Stimuli\scenes\mainScenes\pexels-curtis-adams-4800177.jpg",18,1963,"/?","R",1,1478,692,1583.6,797.6,3,11,1,1,1,4,3
"44",1,2,"Stimuli\scenes\mainScenes\pexels-curtis-adams-10827337.jpg",19,1077,"z","L",1,648,914,753.6,1019.6,2,19,0,0,0,0,0
"45",1,2,"Stimuli\scenes\mainScenes\AdobeStock_214273596.jpeg",20,995,"/?","R",1,808,472,913.6,577.6,1,1,0,1,11,3,2
"46",1,2,"Stimuli\scenes\mainScenes\pexels-curtis-adams-5502217.jpg",21,3740,"/?","R",1,1566,180,1671.6,285.6,1,11,0,0,0,0,0
"47",1,2,"Stimuli\scenes\mainScenes\073_L_filler_absent_coffeemug.jpg",22,961,"z","L",1,616,604,721.6,709.6,3,12,0,1,19,3,2
"48",1,2,"Stimuli\scenes\mainScenes\pexels-gustavo-galeano-maz-11315956.jpg",23,1251,"/?","R",1,1394,522,1499.6,627.6,3,1,1,0,0,0,0
"49",1,2,"Stimuli\scenes\mainScenes\AdobeStock_27579147.jpeg",24,1910,"z","L",1,1454,832,1559.6,937.6,2,19,0,1,11,1,1
"50",1,2,"Stimuli\scenes\mainScenes\pexels-curtis-adams-10827398.jpg",25,1119,"z","L",1,616,812,721.6,917.6,2,19,0,0,0,0,0
"51",1,2,"Stimuli\scenes\mainScenes\pexels-gustavo-galeano-maz-8363713.jpg",26,793,"z","L",1,1024,560,1129.6,665.6,1,11,0,1,12,2,2
"52",1,2,"Stimuli\scenes\mainScenes\pexels-curtis-adams-7601172.jpg",27,1059,"z","L",1,336,728,441.6,833.6,3,1,1,1,12,3,1
"53",1,2,"Stimuli\scenes\mainScenes\AdobeStock_479119675.jpeg",28,1285,"/?","R",1,1270,520,1375.6,625.6,3,12,0,1,1,1,1
"54",1,2,"Stimuli\scenes\mainScenes\pexels-curtis-adams-5900806.jpg",29,991,"/?","R",1,936,544,1041.6,649.6,3,12,0,0,0,0,0
"55",1,2,"Stimuli\scenes\mainScenes\pexels-curtis-adams-7027760.jpg",30,1068,"z","L",1,860,732,965.6,837.6,2,11,1,0,0,0,0
"56",1,2,"Stimuli\scenes\mainScenes\pexels-get-lost-mike-9993440.jpg",31,1657,"/?","R",1,254,594,359.6,699.6,1,1,0,0,0,0,0
"57",1,2,"Stimuli\scenes\mainScenes\AdobeStock_216902241.jpeg",32,1275,"/?","R",1,584,832,689.6,937.6,2,19,0,1,12,4,3
"58",1,2,"Stimuli\scenes\mainScenes\041_L_filler_absent_fruit.jpg",33,1593,"z","L",1,374,744,479.6,849.6,3,12,0,0,0,0,0
"59",1,2,"Stimuli\scenes\mainScenes\pexels-saviesa-home-2089698.jpg",34,1190,"/?","R",1,712,328,817.6,433.6,1,11,0,0,0,0,0
"60",1,2,"Stimuli\scenes\mainScenes\pexels-curtis-adams-3958964.jpg",35,759,"z","L",1,990,538,1095.6,643.6,3,1,1,0,0,0,0
"61",1,2,"Stimuli\scenes\mainScenes\pexels-curtis-adams-15062099.jpg",36,1218,"/?","R",1,1444,918,1549.6,1023.6,2,19,0,1,1,4,3
"62",1,2,"Stimuli\scenes\mainScenes\pexels-terry-magallanes-3623785.jpg",37,841,"z","L",1,528,442,633.6,547.6,3,12,0,0,0,0,0
"63",1,2,"Stimuli\scenes\mainScenes\pexels-max-rahubovskiy-6969864.jpg",38,929,"/?","R",1,1156,476,1261.6,581.6,3,19,1,1,11,2,1
"64",1,2,"Stimuli\scenes\mainScenes\pexels-max-rahubovskiy-6312077.jpg",39,1450,"z","L",1,1548,448,1653.6,553.6,1,11,0,1,1,2,2
"65",1,2,"Stimuli\scenes\mainScenes\pexels-curtis-adams-3773573.jpg",40,1728,"/?","R",1,932,388,1037.6,493.6,1,1,0,1,12,1,3
"66",1,2,"Stimuli\scenes\mainScenes\pexels-max-rahubovskiy-7005450.jpg",41,2019,"/?","R",1,1520,524,1625.6,629.6,3,11,1,1,12,2,2
"67",1,2,"Stimuli\scenes\mainScenes\pexels-curtis-adams-7601072.jpg",42,1178,"z","L",1,462,522,567.6,627.6,3,12,0,0,0,0,0
"68",1,2,"Stimuli\scenes\mainScenes\pexels-max-rahubovskiy-6956124.jpg",43,1414,"z","L",1,594,282,699.6,387.6,1,1,0,1,19,1,2
"69",1,2,"Stimuli\scenes\mainScenes\pexels-max-rahubovskiy-7060815.jpg",44,1268,"z","L",1,1692,930,1797.6,1035.6,2,19,0,0,0,0,0
"70",1,2,"Stimuli\scenes\mainScenes\pexels-alex-qian-2343467.jpg",45,1010,"/?","R",1,1494,436,1599.6,541.6,1,11,0,1,1,1,3
"71",1,2,"Stimuli\scenes\mainScenes\pexels-curtis-adams-3935337.jpg",46,769,"z","L",1,998,672,1103.6,777.6,2,19,0,1,12,1,3
"72",1,2,"Stimuli\scenes\mainScenes\pexels-curtis-adams-4839334.jpg",47,1060,"z","L",1,1240,884,1345.6,989.6,2,1,1,0,0,0,0
"73",1,2,"Stimuli\scenes\mainScenes\pexels-curtis-adams-15062154.jpg",48,1019,"z","L",1,1252,540,1357.6,645.6,3,12,0,0,0,0,0
"74",1,2,"Stimuli\scenes\mainScenes\pexels-alexander-zvir-4252510.jpg",49,1073,"z","L",1,1230,912,1335.6,1017.6,2,12,1,0,0,0,0
"75",1,2,"Stimuli\scenes\mainScenes\pexels-curtis-adams-15409439.jpg",50,1102,"z","L",1,1566,192,1671.6,297.6,1,19,1,1,12,2,3
"76",1,2,"Stimuli\scenes\mainScenes\036_L_filler_absent_bowl.jpg",51,1826,"z","L",1,430,232,535.6,337.6,1,11,0,1,1,4,2
"77",1,2,"Stimuli\scenes\mainScenes\pexels-max-rahubovskiy-6980568.jpg",52,986,"/?","R",1,778,450,883.6,555.6,1,1,0,1,19,4,1
"78",1,2,"Stimuli\scenes\mainScenes\pexels-max-rahubovskiy-6312078.jpg",53,1772,"/?","R",1,128,468,233.6,573.6,1,11,0,1,1,1,1
"79",1,2,"Stimuli\scenes\mainScenes\pexels-curtis-adams-5008407.jpg",54,965,"z","L",1,774,192,879.6,297.6,1,1,0,0,0,0,0
"80",1,2,"Stimuli\scenes\mainScenes\pexels-curtis-adams-4119833.jpg",55,1086,"/?","R",1,820,934,925.6,1039.6,2,19,0,0,0,0,0
"81",1,2,"Stimuli\scenes\mainScenes\pexels-curtis-adams-7027786.jpg",56,1478,"/?","R",1,290,744,395.6,849.6,3,12,0,0,0,0,0
"82",1,2,"Stimuli\scenes\mainScenes\pexels-denys-gromov-4716789.jpg",57,891,"/?","R",1,708,230,813.6,335.6,1,11,0,1,19,1,3
"83",1,2,"Stimuli\scenes\mainScenes\pexels-curtis-adams-4469153.jpg",58,896,"z","L",1,964,542,1069.6,647.6,2,19,0,1,1,1,2
"84",1,2,"Stimuli\scenes\mainScenes\080_L_filler_absent_plant.jpg",59,1345,"z","L",1,1170,542,1275.6,647.6,3,12,0,0,0,0,0
"85",1,2,"Stimuli\scenes\mainScenes\pexels-max-rahubovskiy-7018399.jpg",60,1394,"/?","R",1,1332,544,1437.6,649.6,3,1,1,0,0,0,0
"86",1,3,"Stimuli\scenes\mainScenes\AdobeStock_41005076.jpeg",1,1501,"/?","R",1,48,390,153.6,495.6,1,11,0,1,19,3,2
"87",1,3,"Stimuli\scenes\mainScenes\pexels-sharath-g-4722305.jpg",2,1078,"/?","R",1,422,960,527.6,1065.6,2,19,0,0,0,0,0
"88",1,3,"Stimuli\scenes\mainScenes\AdobeStock_196997973.jpeg",3,1123,"/?","R",1,442,936,547.6,1041.6,2,12,1,1,11,2,1
"89",1,3,"Stimuli\scenes\mainScenes\pexels-max-rahubovskiy-7214338.jpg",4,886,"z","L",1,730,454,835.6,559.6,1,1,0,0,0,0,0
"90",1,3,"Stimuli\scenes\mainScenes\pexels-curtis-adams-3990599.jpg",5,930,"z","L",1,384,404,489.6,509.6,3,19,1,0,0,0,0
"91",1,3,"Stimuli\scenes\mainScenes\pexels-jean-van-der-meulen-3753437.jpg",6,1031,"/?","R",1,340,460,445.6,565.6,3,12,0,1,11,4,2
"92",1,3,"Stimuli\scenes\mainScenes\pexels-ryan-donnelly-100575.jpg",7,1182,"/?","R",1,1428,382,1533.6,487.6,1,11,0,0,0,0,0
"93",1,3,"Stimuli\scenes\mainScenes\pexels-curtis-adams-5900798.jpg",8,887,"z","L",1,88,190,193.6,295.6,1,1,0,0,0,0,0
"94",1,3,"Stimuli\scenes\mainScenes\pexels-mark-mccammon-1080721.jpg",9,1080,"z","L",1,408,214,513.6,319.6,1,11,0,1,19,1,3
"95",1,3,"Stimuli\scenes\mainScenes\pexels-curtis-adams-8186477.jpg",10,1181,"/?","R",1,1298,954,1403.6,1059.6,2,19,0,0,0,0,0
"96",1,3,"Stimuli\scenes\mainScenes\pexels-max-rahubovskiy-7061668.jpg",11,1285,"/?","R",1,44,420,149.6,525.6,1,1,0,1,12,3,3
"97",1,3,"Stimuli\scenes\mainScenes\pexels-max-rahubovskiy-7031868.jpg",12,1306,"z","L",1,730,848,835.6,953.6,2,12,1,1,1,4,1
"98",1,3,"Stimuli\scenes\mainScenes\pexels-curtis-adams-4682110.jpg",13,971,"/?","R",1,1160,688,1265.6,793.6,3,12,0,0,0,0,0
"99",1,3,"Stimuli\scenes\mainScenes\pexels-max-rahubovskiy-7587482.jpg",14,1540,"/?","R",1,1396,536,1501.6,641.6,3,11,1,0,0,0,0
"100",1,3,"Stimuli\scenes\mainScenes\022_L_filler_absent_lamp.jpg",15,1758,"/?","R",1,1568,318,1673.6,423.6,1,1,0,1,11,1,1
"101",1,3,"Stimuli\scenes\mainScenes\pexels-jesse-bannister-7033835.jpg",16,1030,"/?","R",1,284,696,389.6,801.6,2,19,0,1,11,2,3
"102",1,3,"Stimuli\scenes\mainScenes\AdobeStock_461935168.jpeg",17,965,"/?","R",1,976,126,1081.6,231.6,1,11,0,0,0,0,0
"103",1,3,"Stimuli\scenes\mainScenes\pexels-curtis-adams-5353944.jpg",18,1159,"z","L",1,1550,928,1655.6,1033.6,2,19,0,0,0,0,0
"104",1,3,"Stimuli\scenes\mainScenes\pexels-get-lost-mike-10450051.jpg",19,1367,"z","L",1,1324,212,1429.6,317.6,1,12,1,1,11,2,2
"105",1,3,"Stimuli\scenes\mainScenes\pexels-pixabay-271647.jpg",20,1165,"/?","R",1,1518,362,1623.6,467.6,1,1,0,1,11,4,1
"106",1,3,"Stimuli\scenes\mainScenes\pexels-curtis-adams-4221389.jpg",21,1416,"z","L",1,474,108,579.6,213.6,1,11,0,1,1,3,3
"107",1,3,"Stimuli\scenes\mainScenes\pexels-curtis-adams-8583875.jpg",22,1127,"z","L",1,818,936,923.6,1041.6,2,1,1,0,0,0,0
"108",1,3,"Stimuli\scenes\mainScenes\pexels-curtis-adams-15062094.jpg",23,1886,"/?","R",1,340,892,445.6,997.6,2,19,0,0,0,0,0
"109",1,3,"Stimuli\scenes\mainScenes\pexels-mark-mccammon-2724749.jpg",24,1466,"/?","R",1,1382,918,1487.6,1023.6,2,12,1,1,19,4,1
"110",1,3,"Stimuli\scenes\mainScenes\pexels-curtis-adams-7027784.jpg",25,1702,"/?","R",1,254,730,359.6,835.6,3,12,0,0,0,0,0
"111",1,3,"Stimuli\scenes\mainScenes\pexels-curtis-adams-7028072.jpg",26,1231,"/?","R",1,1188,146,1293.6,251.6,1,11,0,1,1,3,2
"112",1,3,"Stimuli\scenes\mainScenes\pexels-curtis-adams-8031902.jpg",27,830,"/?","R",1,716,780,821.6,885.6,2,19,0,0,0,0,0
"113",1,3,"Stimuli\scenes\mainScenes\AdobeStock_106076039.jpeg",28,1126,"/?","R",1,32,230,137.6,335.6,1,1,0,1,11,3,3
"114",1,3,"Stimuli\scenes\mainScenes\pexels-max-rahubovskiy-6956843.jpg",29,1983,"z","L",1,1592,458,1697.6,563.6,1,11,0,1,1,2,2
"115",1,3,"Stimuli\scenes\mainScenes\pexels-curtis-adams-6835139.jpg",30,1400,"z","L",1,246,756,351.6,861.6,3,12,0,0,0,0,0
"116",1,3,"Stimuli\scenes\mainScenes\pexels-curtis-adams-4713243.jpg",31,944,"z","L",1,1354,888,1459.6,993.6,2,19,0,0,0,0,0
"117",1,3,"Stimuli\scenes\mainScenes\pexels-curtis-adams-4258272.jpg",32,1050,"/?","R",1,186,562,291.6,667.6,2,1,1,1,19,3,1
"118",1,3,"Stimuli\scenes\mainScenes\pexels-curtis-adams-4469155.jpg",33,999,"z","L",1,1694,482,1799.6,587.6,1,11,0,0,0,0,0
"119",1,3,"Stimuli\scenes\mainScenes\pexels-curtis-adams-4713242.jpg",34,1286,"z","L",1,282,884,387.6,989.6,2,19,0,1,1,2,1
"120",1,3,"Stimuli\scenes\mainScenes\pexels-skitterphoto-349749.jpg",35,1483,"z","L",1,1704,598,1809.6,703.6,3,1,1,0,0,0,0
"121",1,3,"Stimuli\scenes\mainScenes\pexels-pixabay-534151.jpg",36,848,"z","L",1,1068,524,1173.6,629.6,3,12,0,1,1,1,2
"122",1,3,"Stimuli\scenes\mainScenes\pexels-max-rahubovskiy-6956124.jpg",37,901,"/?","R",1,1148,914,1253.6,1019.6,2,19,0,0,0,0,0
"123",1,3,"Stimuli\scenes\mainScenes\pexels-max-rahubovskiy-6782481.jpg",38,969,"/?","R",1,646,522,751.6,627.6,1,11,0,1,12,2,3
"124",1,3,"Stimuli\scenes\mainScenes\AdobeStock_41005076.jpeg",39,1226,"/?","R",1,48,390,153.6,495.6,1,1,0,0,0,0,0
"125",1,3,"Stimuli\scenes\mainScenes\073_L_filler_absent_coffeemug.jpg",40,1042,"/?","R",1,1350,806,1455.6,911.6,2,12,1,0,0,0,0
"126",1,3,"Stimuli\scenes\mainScenes\pexels-loi-bui-trong-17158669.jpg",41,784,"/?","R",1,738,606,843.6,711.6,3,12,0,1,11,3,1
"127",1,3,"Stimuli\scenes\mainScenes\pexels-curtis-adams-5008398.jpg",42,1345,"/?","R",1,138,84,243.6,189.6,1,11,0,1,1,1,3
"128",1,3,"Stimuli\scenes\mainScenes\pexels-max-rahubovskiy-6969864.jpg",43,1179,"/?","R",1,1630,966,1735.6,1071.6,2,19,0,0,0,0,0
"129",1,3,"Stimuli\scenes\mainScenes\pexels-mark-mccammon-1080721.jpg",44,1645,"/?","R",1,1326,490,1431.6,595.6,3,1,1,1,11,1,3
"130",1,3,"Stimuli\scenes\mainScenes\pexels-curtis-adams-7027786.jpg",45,811,"/?","R",1,1174,922,1279.6,1027.6,2,19,0,1,12,1,3
"131",1,3,"Stimuli\scenes\mainScenes\pexels-curtis-adams-4713243.jpg",46,843,"z","L",1,1158,608,1263.6,713.6,1,11,0,0,0,0,0
"132",1,3,"Stimuli\scenes\mainScenes\pexels-alex-qian-2343467.jpg",47,1392,"/?","R",1,236,870,341.6,975.6,3,12,0,1,11,2,1
"133",1,3,"Stimuli\scenes\mainScenes\pexels-curtis-adams-5900798.jpg",48,945,"z","L",1,88,190,193.6,295.6,1,1,0,0,0,0,0
"134",1,3,"Stimuli\scenes\mainScenes\pexels-curtis-adams-8583875.jpg",49,892,"/?","R",1,766,578,871.6,683.6,3,19,1,0,0,0,0
"135",1,3,"Stimuli\scenes\mainScenes\pexels-curtis-adams-7027760.jpg",50,1792,"/?","R",1,562,838,667.6,943.6,3,11,1,1,1,4,2
"136",1,3,"Stimuli\scenes\mainScenes\pexels-saviesa-home-2089698.jpg",51,1055,"/?","R",1,534,446,639.6,551.6,3,12,0,0,0,0,0
"137",1,3,"Stimuli\scenes\mainScenes\pexels-curtis-adams-6835079.jpg",52,984,"/?","R",1,508,344,613.6,449.6,1,1,0,1,19,2,2
"138",1,3,"Stimuli\scenes\mainScenes\pexels-max-rahubovskiy-7061668.jpg",53,1615,"z","L",1,1488,510,1593.6,615.6,3,12,0,1,11,1,2
"139",1,3,"Stimuli\scenes\mainScenes\041_L_filler_absent_fruit.jpg",54,1271,"/?","R",1,678,898,783.6,1003.6,2,11,1,1,12,2,3
"140",1,3,"Stimuli\scenes\mainScenes\AdobeStock_216902241.jpeg",55,1524,"/?","R",1,1698,222,1803.6,327.6,1,1,0,1,11,4,3
"141",1,3,"Stimuli\scenes\mainScenes\pexels-curtis-adams-4119833.jpg",56,1207,"z","L",1,820,934,925.6,1039.6,2,19,0,0,0,0,0
"142",1,3,"Stimuli\scenes\mainScenes\AdobeStock_27579147.jpeg",57,935,"/?","R",1,546,380,651.6,485.6,1,11,0,0,0,0,0
"143",1,3,"Stimuli\scenes\mainScenes\pexels-max-rahubovskiy-6312078.jpg",58,785,"z","L",1,1014,852,1119.6,957.6,2,19,0,1,1,3,3
"144",1,3,"Stimuli\scenes\mainScenes\pexels-max-rahubovskiy-8082201.jpg",59,1071,"/?","R",1,1386,664,1491.6,769.6,3,1,1,0,0,0,0
"145",1,3,"Stimuli\scenes\mainScenes\pexels-curtis-adams-7601172.jpg",60,772,"/?","R",1,336,728,441.6,833.6,3,12,0,0,0,0,0
"146",1,4,"Stimuli\scenes\mainScenes\pexels-curtis-adams-3990599.jpg",1,1290,"z","L",1,384,404,489.6,509.6,3,12,0,1,1,3,2
"147",1,4,"Stimuli\scenes\mainScenes\pexels-curtis-adams-15062154.jpg",2,1218,"z","L",1,846,916,951.6,1021.6,2,19,0,1,1,3,3
"148",1,4,"Stimuli\scenes\mainScenes\pexels-get-lost-mike-8561916.jpg",3,1953,"/?","R",1,1396,768,1501.6,873.6,3,11,1,1,12,1,3
"149",1,4,"Stimuli\scenes\mainScenes\pexels-jean-van-der-meulen-3753437.jpg",4,891,"z","L",1,1088,218,1193.6,323.6,1,1,0,1,12,2,3
"150",1,4,"Stimuli\scenes\mainScenes\pexels-denys-gromov-4716789.jpg",5,1111,"z","L",1,316,486,421.6,591.6,3,19,1,0,0,0,0
"151",1,4,"Stimuli\scenes\mainScenes\pexels-curtis-adams-7028072.jpg",6,1443,"/?","R",1,1610,792,1715.6,897.6,3,12,0,0,0,0,0
"152",1,4,"Stimuli\scenes\mainScenes\pexels-curtis-adams-15062099.jpg",7,964,"z","L",1,1092,414,1197.6,519.6,1,11,0,0,0,0,0
"153",1,4,"Stimuli\scenes\mainScenes\pexels-curtis-adams-7027784.jpg",8,957,"z","L",1,1152,206,1257.6,311.6,1,1,0,0,0,0,0
"154",1,4,"Stimuli\scenes\mainScenes\pexels-max-rahubovskiy-7018399.jpg",9,1535,"z","L",1,1292,936,1397.6,1041.6,2,11,1,1,1,3,1
"155",1,4,"Stimuli\scenes\mainScenes\AdobeStock_106076039.jpeg",10,978,"z","L",1,478,694,583.6,799.6,3,19,1,0,0,0,0
"156",1,4,"Stimuli\scenes\mainScenes\pexels-curtis-adams-3958964.jpg",11,1345,"z","L",1,68,324,173.6,429.6,1,1,0,1,11,3,1
"157",1,4,"Stimuli\scenes\mainScenes\pexels-alexander-zvir-4252510.jpg",12,1115,"z","L",1,1540,508,1645.6,613.6,3,12,0,0,0,0,0
"158",1,4,"Stimuli\scenes\mainScenes\pexels-curtis-adams-6835139.jpg",13,1111,"z","L",1,246,756,351.6,861.6,3,12,0,1,11,3,1
"159",1,4,"Stimuli\scenes\mainScenes\pexels-curtis-adams-10827337.jpg",14,1227,"/?","R",1,1390,64,1495.6,169.6,1,11,0,1,1,2,2
"160",1,4,"Stimuli\scenes\mainScenes\pexels-curtis-adams-5353944.jpg",15,1402,"z","L",1,1644,132,1749.6,237.6,1,1,0,0,0,0,0
"161",1,4,"Stimuli\scenes\mainScenes\pexels-max-rahubovskiy-6956843.jpg",16,1218,"/?","R",1,508,888,613.6,993.6,2,19,0,0,0,0,0
"162",1,4,"Stimuli\scenes\mainScenes\pexels-curtis-adams-8583892.jpg",17,1546,"z","L",1,1504,622,1609.6,727.6,3,12,0,0,0,0,0
"163",1,4,"Stimuli\scenes\mainScenes\pexels-max-rahubovskiy-6980568.jpg",18,1115,"z","L",1,1012,942,1117.6,1047.6,2,11,1,0,0,0,0
"164",1,4,"Stimuli\scenes\mainScenes\pexels-max-rahubovskiy-7214338.jpg",19,1302,"z","L",1,1334,944,1439.6,1049.6,2,19,0,1,1,1,3
"165",1,4,"Stimuli\scenes\mainScenes\pexels-mark-mccammon-2724749.jpg",20,953,"z","L",1,216,466,321.6,571.6,1,1,0,1,12,1,3
"166",1,4,"Stimuli\scenes\mainScenes\pexels-curtis-adams-4800177.jpg",21,1027,"z","L",1,386,140,491.6,245.6,1,11,0,0,0,0,0
"167",1,4,"Stimuli\scenes\mainScenes\pexels-skitterphoto-349749.jpg",22,858,"z","L",1,158,340,263.6,445.6,1,1,0,0,0,0,0
"168",1,4,"Stimuli\scenes\mainScenes\pexels-loi-bui-trong-17158648.jpg",23,903,"/?","R",1,1538,826,1643.6,931.6,2,12,1,1,19,3,1
"169",1,4,"Stimuli\scenes\mainScenes\pexels-gustavo-galeano-maz-11315956.jpg",24,731,"/?","R",1,914,950,1019.6,1055.6,2,19,0,1,12,3,3
"170",1,4,"Stimuli\scenes\mainScenes\AdobeStock_479119675.jpeg",25,835,"z","L",1,336,538,441.6,643.6,3,12,0,0,0,0,0
"171",1,4,"Stimuli\scenes\mainScenes\AdobeStock_214273596.jpeg",26,921,"z","L",1,808,472,913.6,577.6,1,11,0,0,0,0,0
"172",1,4,"Stimuli\scenes\mainScenes\pexels-max-rahubovskiy-7005450.jpg",27,1796,"z","L",1,656,470,761.6,575.6,1,1,0,1,11,4,1
"173",1,4,"Stimuli\scenes\mainScenes\pexels-terry-magallanes-3623785.jpg",28,1157,"/?","R",1,1518,212,1623.6,317.6,1,19,1,1,11,4,3
"174",1,4,"Stimuli\scenes\mainScenes\AdobeStock_196997973.jpeg",29,1695,"/?","R",1,464,530,569.6,635.6,3,12,0,0,0,0,0
"175",1,4,"Stimuli\scenes\mainScenes\pexels-max-rahubovskiy-7060815.jpg",30,963,"/?","R",1,1028,176,1133.6,281.6,1,11,0,1,12,4,2
"176",1,4,"Stimuli\scenes\mainScenes\pexels-curtis-adams-7027852.jpg",31,779,"z","L",1,1370,572,1475.6,677.6,2,19,0,1,1,4,1
"177",1,4,"Stimuli\scenes\mainScenes\pexels-curtis-adams-4469155.jpg",32,1196,"/?","R",1,1606,894,1711.6,999.6,2,1,1,0,0,0,0
"178",1,4,"Stimuli\scenes\mainScenes\pexels-curtis-adams-15062094.jpg",33,957,"z","L",1,1230,578,1335.6,683.6,3,12,0,0,0,0,0
"179",1,4,"Stimuli\scenes\mainScenes\pexels-curtis-adams-4839334.jpg",34,879,"z","L",1,1240,884,1345.6,989.6,2,19,0,1,11,3,1
"180",1,4,"Stimuli\scenes\mainScenes\pexels-max-rahubovskiy-7587482.jpg",35,749,"/?","R",1,664,282,769.6,387.6,1,11,0,0,0,0,0
"181",1,4,"Stimuli\scenes\mainScenes\pexels-max-rahubovskiy-6489116.jpg",36,1350,"/?","R",1,1634,344,1739.6,449.6,1,1,0,0,0,0,0
"182",1,4,"Stimuli\scenes\mainScenes\pexels-max-rahubovskiy-6312077.jpg",37,1009,"z","L",1,488,900,593.6,1005.6,2,19,0,1,11,4,3
"183",1,4,"Stimuli\scenes\mainScenes\pexels-curtis-adams-8186477.jpg",38,768,"/?","R",1,1062,608,1167.6,713.6,3,11,1,0,0,0,0
"184",1,4,"Stimuli\scenes\mainScenes\pexels-loi-bui-trong-17181942.jpg",39,984,"z","L",1,1450,646,1555.6,751.6,3,12,0,1,11,4,2
"185",1,4,"Stimuli\scenes\mainScenes\080_L_filler_absent_plant.jpg",40,832,"/?","R",1,158,514,263.6,619.6,3,1,1,1,11,4,2
"186",1,4,"Stimuli\scenes\mainScenes\pexels-pixabay-271647.jpg",41,1247,"z","L",1,1518,362,1623.6,467.6,1,11,0,1,1,4,1
"187",1,4,"Stimuli\scenes\mainScenes\pexels-curtis-adams-4221389.jpg",42,783,"z","L",1,474,754,579.6,859.6,3,12,0,0,0,0,0
"188",1,4,"Stimuli\scenes\mainScenes\pexels-ryan-donnelly-100575.jpg",43,880,"/?","R",1,1428,382,1533.6,487.6,1,19,1,0,0,0,0
"189",1,4,"Stimuli\scenes\mainScenes\pexels-jesse-bannister-7033835.jpg",44,933,"z","L",1,1316,934,1421.6,1039.6,2,1,1,1,19,4,2
"190",1,4,"Stimuli\scenes\mainScenes\pexels-curtis-adams-15409439.jpg",45,684,"/?","R",1,684,694,789.6,799.6,2,19,0,1,1,4,2
"191",1,4,"Stimuli\scenes\mainScenes\AdobeStock_461935168.jpeg",46,1529,"/?","R",1,462,566,567.6,671.6,3,12,0,1,19,1,3
"192",1,4,"Stimuli\scenes\mainScenes\pexels-gustavo-galeano-maz-8363713.jpg",47,779,"/?","R",1,1024,560,1129.6,665.6,1,11,0,0,0,0,0
"193",1,4,"Stimuli\scenes\mainScenes\pexels-curtis-adams-5502217.jpg",48,973,"/?","R",1,1566,180,1671.6,285.6,1,1,0,0,0,0,0
"194",1,4,"Stimuli\scenes\mainScenes\pexels-curtis-adams-8031902.jpg",49,1278,"/?","R",1,716,780,821.6,885.6,2,12,1,1,1,4,3
"195",1,4,"Stimuli\scenes\mainScenes\pexels-curtis-adams-7601072.jpg",50,843,"/?","R",1,1400,248,1505.6,353.6,1,11,0,1,12,4,3
"196",1,4,"Stimuli\scenes\mainScenes\pexels-curtis-adams-4713242.jpg",51,874,"z","L",1,662,442,767.6,547.6,1,19,1,0,0,0,0
"197",1,4,"Stimuli\scenes\mainScenes\022_L_filler_absent_lamp.jpg",52,1159,"z","L",1,1568,318,1673.6,423.6,1,1,0,1,19,2,3
"198",1,4,"Stimuli\scenes\mainScenes\pexels-curtis-adams-4469153.jpg",53,746,"z","L",1,546,392,651.6,497.6,1,11,0,0,0,0,0
"199",1,4,"Stimuli\scenes\mainScenes\pexels-level-media-3016430.jpg",54,1278,"z","L",1,1628,892,1733.6,997.6,2,19,0,0,0,0,0
"200",1,4,"Stimuli\scenes\mainScenes\pexels-get-lost-mike-10450051.jpg",55,1365,"z","L",1,1450,660,1555.6,765.6,3,12,0,1,19,2,2
"201",1,4,"Stimuli\scenes\mainScenes\pexels-pixabay-534151.jpg",56,784,"z","L",1,142,204,247.6,309.6,1,1,0,0,0,0,0
"202",1,4,"Stimuli\scenes\mainScenes\pexels-keegan-checks-10117731.jpg",57,1039,"/?","R",1,1154,932,1259.6,1037.6,2,11,1,1,19,4,3
"203",1,4,"Stimuli\scenes\mainScenes\pexels-max-rahubovskiy-7031868.jpg",58,837,"z","L",1,730,848,835.6,953.6,2,19,0,1,1,3,1
"204",1,4,"Stimuli\scenes\mainScenes\pexels-curtis-adams-3773573.jpg",59,1076,"/?","R",1,986,920,1091.6,1025.6,2,1,1,0,0,0,0
"205",1,4,"Stimuli\scenes\mainScenes\AdobeStock_216902237.jpeg",60,1145,"z","L",1,338,476,443.6,581.6,3,12,0,0,0,0,0
"206",1,5,"Stimuli\scenes\mainScenes\pexels-curtis-adams-4258272.jpg",1,1331,"/?","R",1,1724,318,1829.6,423.6,1,11,0,0,0,0,0
"207",1,5,"Stimuli\scenes\mainScenes\pexels-sharath-g-4722305.jpg",2,1301,"z","L",1,1446,848,1551.6,953.6,3,12,0,1,1,4,2
"208",1,5,"Stimuli\scenes\mainScenes\pexels-jean-van-der-meulen-1599791.jpg",3,864,"/?","R",1,938,444,1043.6,549.6,1,1,0,0,0,0,0
"209",1,5,"Stimuli\scenes\mainScenes\pexels-curtis-adams-4682110.jpg",4,1085,"/?","R",1,322,898,427.6,1003.6,2,19,0,1,12,1,3
"210",1,5,"Stimuli\scenes\mainScenes\pexels-curtis-adams-5008407.jpg",5,1466,"/?","R",1,774,192,879.6,297.6,1,11,0,0,0,0,0
"211",1,5,"Stimuli\scenes\mainScenes\036_L_filler_absent_bowl.jpg",6,838,"/?","R",1,1528,932,1633.6,1037.6,2,19,0,1,1,3,3
"212",1,5,"Stimuli\scenes\mainScenes\pexels-curtis-adams-5900806.jpg",7,1285,"/?","R",1,1744,854,1849.6,959.6,2,1,1,1,12,4,2
"213",1,5,"Stimuli\scenes\mainScenes\pexels-get-lost-mike-9993440.jpg",8,826,"z","L",1,1144,544,1249.6,649.6,3,12,0,0,0,0,0
"214",1,5,"Stimuli\scenes\mainScenes\pexels-curtis-adams-10827398.jpg",9,1122,"z","L",1,1740,314,1845.6,419.6,1,19,1,0,0,0,0
"215",1,5,"Stimuli\scenes\mainScenes\pexels-max-rahubovskiy-7061393.jpg",10,1404,"z","L",1,396,728,501.6,833.6,3,12,0,1,1,1,3
"216",1,5,"Stimuli\scenes\mainScenes\pexels-curtis-adams-3935337.jpg",11,868,"/?","R",1,948,188,1053.6,293.6,1,11,0,1,12,1,3
"217",1,5,"Stimuli\scenes\mainScenes\pexels-get-lost-mike-8504308.jpg",12,737,"z","L",1,1674,314,1779.6,419.6,1,1,0,0,0,0,0
"218",1,5,"Stimuli\scenes\mainScenes\AdobeStock_106076039.jpeg",13,1373,"z","L",1,32,230,137.6,335.6,1,11,0,0,0,0,0
"219",1,5,"Stimuli\scenes\mainScenes\pexels-curtis-adams-4800177.jpg",14,1422,"z","L",1,360,678,465.6,783.6,2,19,0,1,11,3,1
"220",1,5,"Stimuli\scenes\mainScenes\AdobeStock_214273596.jpeg",15,764,"z","L",1,828,668,933.6,773.6,2,1,1,0,0,0,0
"221",1,5,"Stimuli\scenes\mainScenes\pexels-max-rahubovskiy-7060815.jpg",16,1029,"z","L",1,1620,622,1725.6,727.6,3,12,0,0,0,0,0
"222",1,5,"Stimuli\scenes\mainScenes\pexels-alex-qian-2343467.jpg",17,1053,"z","L",1,534,560,639.6,665.6,3,12,0,0,0,0,0
"223",1,5,"Stimuli\scenes\mainScenes\pexels-curtis-adams-5008398.jpg",18,1090,"z","L",1,1586,490,1691.6,595.6,3,11,1,1,12,4,1
"224",1,5,"Stimuli\scenes\mainScenes\080_L_filler_absent_plant.jpg",19,1359,"z","L",1,478,904,583.6,1009.6,2,19,0,1,1,3,1
"225",1,5,"Stimuli\scenes\mainScenes\AdobeStock_196997973.jpeg",20,801,"z","L",1,1136,116,1241.6,221.6,1,1,0,1,11,4,2
"226",1,5,"Stimuli\scenes\mainScenes\pexels-curtis-adams-3935337.jpg",21,757,"z","L",1,998,672,1103.6,777.6,2,19,0,0,0,0,0
"227",1,5,"Stimuli\scenes\mainScenes\pexels-max-rahubovskiy-6489116.jpg",22,974,"/?","R",1,430,522,535.6,627.6,3,12,0,1,19,3,1
"228",1,5,"Stimuli\scenes\mainScenes\pexels-curtis-adams-7027852.jpg",23,1576,"z","L",1,246,630,351.6,735.6,3,11,1,1,12,3,3
"229",1,5,"Stimuli\scenes\mainScenes\pexels-max-rahubovskiy-7018399.jpg",24,787,"z","L",1,550,258,655.6,363.6,1,1,0,1,19,1,3
"230",1,5,"Stimuli\scenes\mainScenes\pexels-curtis-adams-8186477.jpg",25,1484,"/?","R",1,246,258,351.6,363.6,1,11,0,0,0,0,0
"231",1,5,"Stimuli\scenes\mainScenes\pexels-curtis-adams-10827398.jpg",26,1095,"/?","R",1,1572,662,1677.6,767.6,3,19,1,0,0,0,0
"232",1,5,"Stimuli\scenes\mainScenes\pexels-curtis-adams-7601172.jpg",27,675,"/?","R",1,820,434,925.6,539.6,1,1,0,1,11,3,1
"233",1,5,"Stimuli\scenes\mainScenes\pexels-curtis-adams-7028072.jpg",28,1156,"z","L",1,124,630,229.6,735.6,3,12,0,0,0,0,0
"234",1,5,"Stimuli\scenes\mainScenes\pexels-curtis-adams-3773573.jpg",29,1142,"/?","R",1,986,920,1091.6,1025.6,2,11,1,1,1,4,1
"235",1,5,"Stimuli\scenes\mainScenes\AdobeStock_41005076.jpeg",30,1496,"/?","R",1,1530,528,1635.6,633.6,3,12,0,1,19,2,1
"236",1,5,"Stimuli\scenes\mainScenes\pexels-curtis-adams-4221389.jpg",31,714,"/?","R",1,474,108,579.6,213.6,1,1,0,0,0,0,0
"237",1,5,"Stimuli\scenes\mainScenes\pexels-max-rahubovskiy-6312077.jpg",32,646,"/?","R",1,488,900,593.6,1005.6,2,19,0,0,0,0,0
"238",1,5,"Stimuli\scenes\mainScenes\pexels-max-rahubovskiy-6782481.jpg",33,1460,"z","L",1,1352,594,1457.6,699.6,3,11,1,0,0,0,0
"239",1,5,"Stimuli\scenes\mainScenes\pexels-pixabay-271647.jpg",34,1194,"z","L",1,316,910,421.6,1015.6,2,19,0,1,12,4,1
"240",1,5,"Stimuli\scenes\mainScenes\pexels-jean-van-der-meulen-1599791.jpg",35,944,"/?","R",1,938,444,1043.6,549.6,1,1,0,0,0,0,0
"241",1,5,"Stimuli\scenes\mainScenes\pexels-terry-magallanes-3623785.jpg",36,1490,"/?","R",1,350,642,455.6,747.6,3,12,0,1,19,2,2
"242",1,5,"Stimuli\scenes\mainScenes\pexels-curtis-adams-5502217.jpg",37,1331,"z","L",1,1566,180,1671.6,285.6,1,11,0,0,0,0,0
"243",1,5,"Stimuli\scenes\mainScenes\pexels-curtis-adams-8583875.jpg",38,646,"z","L",1,766,578,871.6,683.6,3,12,0,0,0,0,0
"244",1,5,"Stimuli\scenes\mainScenes\pexels-level-media-3016430.jpg",39,644,"/?","R",1,912,662,1017.6,767.6,3,19,1,0,0,0,0
"245",1,5,"Stimuli\scenes\mainScenes\pexels-curtis-adams-15062094.jpg",40,1171,"z","L",1,574,298,679.6,403.6,1,1,0,1,11,2,3
"246",1,5,"Stimuli\scenes\mainScenes\pexels-pixabay-534151.jpg",41,1228,"/?","R",1,1278,696,1383.6,801.6,2,11,1,1,19,3,1
"247",1,5,"Stimuli\scenes\mainScenes\pexels-curtis-adams-7027760.jpg",42,620,"/?","R",1,860,732,965.6,837.6,2,19,0,0,0,0,0
"248",1,5,"Stimuli\scenes\mainScenes\pexels-get-lost-mike-10450051.jpg",43,1562,"/?","R",1,1324,212,1429.6,317.6,1,1,0,1,11,2,2
"249",1,5,"Stimuli\scenes\mainScenes\pexels-jean-van-der-meulen-3753437.jpg",44,2085,"/?","R",1,340,460,445.6,565.6,3,12,0,1,11,4,2
"250",1,5,"Stimuli\scenes\mainScenes\pexels-mark-mccammon-2724749.jpg",45,1112,"/?","R",1,216,466,321.6,571.6,1,11,0,1,1,3,3
"251",1,5,"Stimuli\scenes\mainScenes\pexels-curtis-adams-6835139.jpg",46,724,"/?","R",1,820,800,925.6,905.6,2,19,0,0,0,0,0
"252",1,5,"Stimuli\scenes\mainScenes\pexels-curtis-adams-10827337.jpg",47,821,"/?","R",1,258,480,363.6,585.6,1,1,0,0,0,0,0
"253",1,5,"Stimuli\scenes\mainScenes\pexels-max-rahubovskiy-6312078.jpg",48,1501,"z","L",1,1758,598,1863.6,703.6,3,12,0,1,11,1,1
"254",1,5,"Stimuli\scenes\mainScenes\pexels-curtis-adams-5353944.jpg",49,1434,"/?","R",1,1716,554,1821.6,659.6,3,11,1,0,0,0,0
"255",1,5,"Stimuli\scenes\mainScenes\pexels-curtis-adams-4119833.jpg",50,937,"/?","R",1,820,934,925.6,1039.6,2,19,0,1,1,2,3
"256",1,5,"Stimuli\scenes\mainScenes\pexels-mark-mccammon-1080721.jpg",51,1251,"z","L",1,408,214,513.6,319.6,1,1,0,0,0,0,0
"257",1,5,"Stimuli\scenes\mainScenes\pexels-saviesa-home-2089698.jpg",52,1409,"z","L",1,1418,680,1523.6,785.6,2,12,1,1,11,2,3
"258",1,5,"Stimuli\scenes\mainScenes\pexels-ryan-donnelly-100575.jpg",53,985,"/?","R",1,1428,382,1533.6,487.6,1,11,0,1,1,1,3
"259",1,5,"Stimuli\scenes\mainScenes\AdobeStock_216902237.jpeg",54,1250,"z","L",1,1254,226,1359.6,331.6,1,12,1,0,0,0,0
"260",1,5,"Stimuli\scenes\mainScenes\pexels-max-rahubovskiy-7005450.jpg",55,1025,"/?","R",1,1520,524,1625.6,629.6,3,19,1,1,11,1,1
"261",1,5,"Stimuli\scenes\mainScenes\pexels-curtis-adams-4713242.jpg",56,705,"z","L",1,662,442,767.6,547.6,1,1,0,1,11,4,2
"262",1,5,"Stimuli\scenes\mainScenes\041_L_filler_absent_fruit.jpg",57,1501,"/?","R",1,374,268,479.6,373.6,1,11,0,0,0,0,0
"263",1,5,"Stimuli\scenes\mainScenes\pexels-curtis-adams-15062154.jpg",58,1064,"/?","R",1,622,704,727.6,809.6,3,12,0,1,11,1,3
"264",1,5,"Stimuli\scenes\mainScenes\pexels-jesse-bannister-7033835.jpg",59,814,"/?","R",1,418,370,523.6,475.6,1,1,0,0,0,0,0
"265",1,5,"Stimuli\scenes\mainScenes\pexels-curtis-adams-7027784.jpg",60,1097,"/?","R",1,1608,920,1713.6,1025.6,2,19,0,0,0,0,0
"266",1,6,"Stimuli\scenes\mainScenes\pexels-curtis-adams-7027786.jpg",1,959,"z","L",1,894,568,999.6,673.6,3,11,1,1,19,2,3
"267",1,6,"Stimuli\scenes\mainScenes\073_L_filler_absent_coffeemug.jpg",2,1519,"/?","R",1,474,290,579.6,395.6,1,1,0,1,11,4,3
"268",1,6,"Stimuli\scenes\mainScenes\pexels-curtis-adams-3990599.jpg",3,786,"/?","R",1,680,516,785.6,621.6,2,19,0,1,1,1,3
"269",1,6,"Stimuli\scenes\mainScenes\pexels-max-rahubovskiy-8082201.jpg",4,1098,"/?","R",1,1386,664,1491.6,769.6,3,12,0,1,19,3,3
"270",1,6,"Stimuli\scenes\mainScenes\pexels-keegan-checks-10117731.jpg",5,902,"/?","R",1,1290,548,1395.6,653.6,3,12,0,0,0,0,0
"271",1,6,"Stimuli\scenes\mainScenes\pexels-max-rahubovskiy-7214338.jpg",6,953,"/?","R",1,1334,944,1439.6,1049.6,2,19,0,0,0,0,0
"272",1,6,"Stimuli\scenes\mainScenes\pexels-loi-bui-trong-17181942.jpg",7,1538,"z","L",1,246,670,351.6,775.6,3,11,1,0,0,0,0
"273",1,6,"Stimuli\scenes\mainScenes\AdobeStock_216902241.jpeg",8,1062,"z","L",1,1698,222,1803.6,327.6,1,1,0,0,0,0,0
"274",1,6,"Stimuli\scenes\mainScenes\pexels-curtis-adams-5900798.jpg",9,899,"z","L",1,414,934,519.6,1039.6,2,19,0,1,1,2,3
"275",1,6,"Stimuli\scenes\mainScenes\pexels-curtis-adams-4258272.jpg",10,1784,"/?","R",1,1724,318,1829.6,423.6,1,11,0,1,19,4,3
"276",1,6,"Stimuli\scenes\mainScenes\pexels-max-rahubovskiy-6956124.jpg",11,937,"z","L",1,430,890,535.6,995.6,3,1,1,1,19,1,2
"277",1,6,"Stimuli\scenes\mainScenes\pexels-loi-bui-trong-17158669.jpg",12,1179,"z","L",1,738,606,843.6,711.6,3,12,0,0,0,0,0
"278",1,6,"Stimuli\scenes\mainScenes\pexels-get-lost-mike-8504308.jpg",13,1036,"z","L",1,1674,314,1779.6,419.6,1,11,0,0,0,0,0
"279",1,6,"Stimuli\scenes\mainScenes\pexels-curtis-adams-4682110.jpg",14,621,"z","L",1,1160,688,1265.6,793.6,3,1,1,0,0,0,0
"280",1,6,"Stimuli\scenes\mainScenes\pexels-loi-bui-trong-17158648.jpg",15,1547,"/?","R",1,164,826,269.6,931.6,2,19,0,1,1,3,1
"281",1,6,"Stimuli\scenes\mainScenes\AdobeStock_27579147.jpeg",16,1368,"/?","R",1,1282,470,1387.6,575.6,3,12,0,0,0,0,0
"282",1,6,"Stimuli\scenes\mainScenes\pexels-skitterphoto-349749.jpg",17,602,"z","L",1,1198,436,1303.6,541.6,3,19,1,1,12,3,2
"283",1,6,"Stimuli\scenes\mainScenes\pexels-denys-gromov-4716789.jpg",18,888,"/?","R",1,708,230,813.6,335.6,1,11,0,1,1,1,3
"284",1,6,"Stimuli\scenes\mainScenes\pexels-curtis-adams-8583892.jpg",19,1046,"z","L",1,198,236,303.6,341.6,1,1,0,0,0,0,0
"285",1,6,"Stimuli\scenes\mainScenes\pexels-max-rahubovskiy-7061393.jpg",20,1010,"/?","R",1,982,884,1087.6,989.6,2,12,1,0,0,0,0
"286",1,6,"Stimuli\scenes\mainScenes\pexels-curtis-adams-5900806.jpg",21,1236,"z","L",1,406,310,511.6,415.6,1,11,0,1,12,3,2
"287",1,6,"Stimuli\scenes\mainScenes\AdobeStock_479119675.jpeg",22,898,"/?","R",1,606,898,711.6,1003.6,2,19,0,0,0,0,0
"288",1,6,"Stimuli\scenes\mainScenes\pexels-get-lost-mike-8561916.jpg",23,1174,"/?","R",1,150,720,255.6,825.6,3,12,0,0,0,0,0
"289",1,6,"Stimuli\scenes\mainScenes\pexels-max-rahubovskiy-6956843.jpg",24,642,"z","L",1,1070,274,1175.6,379.6,1,1,0,1,19,1,3
"290",1,6,"Stimuli\scenes\mainScenes\pexels-gustavo-galeano-maz-11315956.jpg",25,1593,"z","L",1,180,380,285.6,485.6,1,11,0,1,1,4,1
"291",1,6,"Stimuli\scenes\mainScenes\pexels-get-lost-mike-9993440.jpg",26,687,"z","L",1,860,678,965.6,783.6,2,19,0,0,0,0,0
"292",1,6,"Stimuli\scenes\mainScenes\pexels-curtis-adams-4469155.jpg",27,1196,"z","L",1,1694,482,1799.6,587.6,1,1,0,1,12,4,1
"293",1,6,"Stimuli\scenes\mainScenes\pexels-curtis-adams-5008407.jpg",28,1341,"/?","R",1,1574,770,1679.6,875.6,3,12,0,0,0,0,0
"294",1,6,"Stimuli\scenes\mainScenes\pexels-curtis-adams-15062099.jpg",29,837,"/?","R",1,1460,528,1565.6,633.6,3,11,1,0,0,0,0
"295",1,6,"Stimuli\scenes\mainScenes\pexels-max-rahubovskiy-7587482.jpg",30,996,"z","L",1,438,562,543.6,667.6,3,19,1,1,1,3,2
"296",1,6,"Stimuli\scenes\mainScenes\AdobeStock_461935168.jpeg",31,1005,"z","L",1,976,126,1081.6,231.6,1,1,0,0,0,0,0
"297",1,6,"Stimuli\scenes\mainScenes\pexels-curtis-adams-4839334.jpg",32,1023,"/?","R",1,1398,496,1503.6,601.6,3,12,0,1,11,2,2
"298",1,6,"Stimuli\scenes\mainScenes\pexels-max-rahubovskiy-6969864.jpg",33,1297,"z","L",1,1630,966,1735.6,1071.6,2,19,0,1,11,2,1
"299",1,6,"Stimuli\scenes\mainScenes\pexels-max-rahubovskiy-7031868.jpg",34,748,"/?","R",1,730,848,835.6,953.6,2,11,1,1,12,3,1
"300",1,6,"Stimuli\scenes\mainScenes\pexels-curtis-adams-7601072.jpg",35,1455,"/?","R",1,1400,248,1505.6,353.6,1,1,0,0,0,0,0
"301",1,6,"Stimuli\scenes\mainScenes\pexels-curtis-adams-15409439.jpg",36,720,"z","L",1,1042,496,1147.6,601.6,3,12,0,1,19,3,1
"302",1,6,"Stimuli\scenes\mainScenes\pexels-curtis-adams-4469153.jpg",37,1067,"z","L",1,546,392,651.6,497.6,1,11,0,1,12,1,2
"303",1,6,"Stimuli\scenes\mainScenes\022_L_filler_absent_lamp.jpg",38,1445,"/?","R",1,164,876,269.6,981.6,2,19,0,0,0,0,0
"304",1,6,"Stimuli\scenes\mainScenes\pexels-alexander-zvir-4252510.jpg",39,866,"z","L",1,1540,508,1645.6,613.6,3,12,0,0,0,0,0
"305",1,6,"Stimuli\scenes\mainScenes\036_L_filler_absent_bowl.jpg",40,1781,"/?","R",1,1528,932,1633.6,1037.6,2,1,1,0,0,0,0
"306",1,6,"Stimuli\scenes\mainScenes\pexels-max-rahubovskiy-6980568.jpg",41,1078,"z","L",1,1260,120,1365.6,225.6,1,11,0,1,1,3,1
"307",1,6,"Stimuli\scenes\mainScenes\pexels-curtis-adams-3958964.jpg",42,1579,"/?","R",1,980,176,1085.6,281.6,1,1,0,1,19,1,3
"308",1,6,"Stimuli\scenes\mainScenes\pexels-curtis-adams-6835079.jpg",43,917,"/?","R",1,1656,510,1761.6,615.6,3,12,0,0,0,0,0
"309",1,6,"Stimuli\scenes\mainScenes\pexels-curtis-adams-4713243.jpg",44,754,"/?","R",1,1354,888,1459.6,993.6,2,19,0,0,0,0,0
"310",1,6,"Stimuli\scenes\mainScenes\pexels-sharath-g-4722305.jpg",45,1555,"z","L",1,422,960,527.6,1065.6,2,12,1,1,11,2,1
"311",1,6,"Stimuli\scenes\mainScenes\pexels-max-rahubovskiy-7061668.jpg",46,776,"/?","R",1,1286,204,1391.6,309.6,1,19,1,0,0,0,0
"312",1,6,"Stimuli\scenes\mainScenes\pexels-curtis-adams-8031902.jpg",47,1113,"/?","R",1,308,188,413.6,293.6,1,11,0,1,19,1,2
"313",1,6,"Stimuli\scenes\mainScenes\pexels-gustavo-galeano-maz-8363713.jpg",48,828,"z","L",1,1024,560,1129.6,665.6,1,1,0,0,0,0,0
"314",1,6,"Stimuli\scenes\mainScenes\pexels-curtis-adams-4469155.jpg",49,1436,"/?","R",1,1694,482,1799.6,587.6,1,11,0,1,19,4,1
"315",1,6,"Stimuli\scenes\mainScenes\pexels-curtis-adams-5900806.jpg",50,979,"/?","R",1,406,310,511.6,415.6,1,1,0,0,0,0,0
"316",1,6,"Stimuli\scenes\mainScenes\036_L_filler_absent_bowl.jpg",51,781,"/?","R",1,1528,932,1633.6,1037.6,2,19,0,1,12,2,1
"317",1,6,"Stimuli\scenes\mainScenes\pexels-max-rahubovskiy-7018399.jpg",52,717,"z","L",1,1332,544,1437.6,649.6,3,12,0,0,0,0,0
"318",1,6,"Stimuli\scenes\mainScenes\pexels-curtis-adams-3990599.jpg",53,769,"z","L",1,680,516,785.6,621.6,2,19,0,0,0,0,0
"319",1,6,"Stimuli\scenes\mainScenes\pexels-loi-bui-trong-17158669.jpg",54,1665,"z","L",1,738,606,843.6,711.6,3,11,1,1,1,3,1
"320",1,6,"Stimuli\scenes\mainScenes\pexels-curtis-adams-5502217.jpg",55,1334,"/?","R",1,110,724,215.6,829.6,2,1,1,0,0,0,0
"321",1,6,"Stimuli\scenes\mainScenes\pexels-curtis-adams-8186477.jpg",56,552,"/?","R",1,1062,608,1167.6,713.6,3,12,0,1,1,3,3
"322",1,6,"Stimuli\scenes\mainScenes\pexels-curtis-adams-4713243.jpg",57,658,"/?","R",1,1158,608,1263.6,713.6,1,11,0,0,0,0,0
"323",1,6,"Stimuli\scenes\mainScenes\pexels-max-rahubovskiy-6489116.jpg",58,1258,"/?","R",1,214,912,319.6,1017.6,2,19,0,1,11,4,3
"324",1,6,"Stimuli\scenes\mainScenes\pexels-curtis-adams-4682110.jpg",59,2033,"z","L",1,386,500,491.6,605.6,3,12,0,1,19,1,3
"325",1,6,"Stimuli\scenes\mainScenes\AdobeStock_461935168.jpeg",60,797,"/?","R",1,806,602,911.6,707.6,2,1,1,1,11,4,1
"326",1,7,"Stimuli\scenes\mainScenes\pexels-max-rahubovskiy-6956843.jpg",1,1182,"z","L",1,508,888,613.6,993.6,2,19,0,0,0,0,0
"327",1,7,"Stimuli\scenes\mainScenes\pexels-max-rahubovskiy-7214338.jpg",2,1263,"z","L",1,1334,548,1439.6,653.6,3,12,0,1,1,4,2
"328",1,7,"Stimuli\scenes\mainScenes\pexels-gustavo-galeano-maz-8363713.jpg",3,852,"z","L",1,1024,560,1129.6,665.6,1,11,0,0,0,0,0
"329",1,7,"Stimuli\scenes\mainScenes\pexels-curtis-adams-5008407.jpg",4,2089,"z","L",1,104,590,209.6,695.6,3,1,1,0,0,0,0
"330",1,7,"Stimuli\scenes\mainScenes\pexels-get-lost-mike-10450051.jpg",5,1468,"/?","R",1,1450,660,1555.6,765.6,3,12,0,0,0,0,0
"331",1,7,"Stimuli\scenes\mainScenes\041_L_filler_absent_fruit.jpg",6,930,"z","L",1,1416,740,1521.6,845.6,3,19,1,1,12,4,2
"332",1,7,"Stimuli\scenes\mainScenes\AdobeStock_479119675.jpeg",7,916,"/?","R",1,1472,158,1577.6,263.6,1,11,0,1,19,3,2
"333",1,7,"Stimuli\scenes\mainScenes\AdobeStock_214273596.jpeg",8,535,"z","L",1,828,668,933.6,773.6,2,1,1,0,0,0,0
"334",1,7,"Stimuli\scenes\mainScenes\AdobeStock_106076039.jpeg",9,1321,"/?","R",1,32,230,137.6,335.6,1,11,0,0,0,0,0
"335",1,7,"Stimuli\scenes\mainScenes\pexels-curtis-adams-4119833.jpg",10,677,"/?","R",1,732,540,837.6,645.6,3,12,0,1,19,1,1
"336",1,7,"Stimuli\scenes\mainScenes\pexels-max-rahubovskiy-7061393.jpg",11,1554,"z","R",0,1562,118,1667.6,223.6,1,1,0,1,11,4,3
"337",1,7,"Stimuli\scenes\mainScenes\pexels-alex-qian-2343467.jpg",12,1003,"/?","R",1,1202,910,1307.6,1015.6,2,19,0,0,0,0,0
"338",1,7,"Stimuli\scenes\mainScenes\pexels-pixabay-534151.jpg",13,1435,"/?","R",1,142,204,247.6,309.6,1,11,0,0,0,0,0
"339",1,7,"Stimuli\scenes\mainScenes\pexels-denys-gromov-4716789.jpg",14,785,"z","L",1,918,534,1023.6,639.6,2,1,1,1,12,3,2
"340",1,7,"Stimuli\scenes\mainScenes\pexels-curtis-adams-10827398.jpg",15,1610,"/?","R",1,1572,662,1677.6,767.6,3,12,0,0,0,0,0
"341",1,7,"Stimuli\scenes\mainScenes\pexels-curtis-adams-4221389.jpg",16,759,"/?","R",1,910,916,1015.6,1021.6,2,19,0,1,1,3,3
"342",1,7,"Stimuli\scenes\mainScenes\pexels-curtis-adams-7027784.jpg",17,1295,"/?","R",1,1152,206,1257.6,311.6,1,11,0,1,19,2,2
"343",1,7,"Stimuli\scenes\mainScenes\pexels-pixabay-271647.jpg",18,812,"z","L",1,538,394,643.6,499.6,1,1,0,1,19,1,2
"344",1,7,"Stimuli\scenes\mainScenes\pexels-level-media-3016430.jpg",19,885,"z","L",1,1628,892,1733.6,997.6,2,19,0,0,0,0,0
"345",1,7,"Stimuli\scenes\mainScenes\pexels-curtis-adams-5900798.jpg",20,1300,"/?","R",1,414,934,519.6,1039.6,2,12,1,0,0,0,0
"346",1,7,"Stimuli\scenes\mainScenes\pexels-alexander-zvir-4252510.jpg",21,735,"/?","R",1,1230,912,1335.6,1017.6,2,19,0,1,11,4,1
"347",1,7,"Stimuli\scenes\mainScenes\pexels-curtis-adams-3935337.jpg",22,963,"z","L",1,948,188,1053.6,293.6,1,11,0,0,0,0,0
"348",1,7,"Stimuli\scenes\mainScenes\pexels-curtis-adams-4800177.jpg",23,2817,"/?","R",1,386,140,491.6,245.6,1,1,0,0,0,0,0
"349",1,7,"Stimuli\scenes\mainScenes\pexels-max-rahubovskiy-8082201.jpg",24,1574,"/?","R",1,34,900,139.6,1005.6,2,12,1,0,0,0,0
"350",1,7,"Stimuli\scenes\mainScenes\pexels-max-rahubovskiy-6969864.jpg",25,1063,"z","L",1,334,508,439.6,613.6,3,12,0,1,1,1,3
"351",1,7,"Stimuli\scenes\mainScenes\pexels-curtis-adams-8583892.jpg",26,1122,"/?","R",1,198,236,303.6,341.6,1,11,0,0,0,0,0
"352",1,7,"Stimuli\scenes\mainScenes\pexels-max-rahubovskiy-7005450.jpg",27,808,"z","L",1,1034,802,1139.6,907.6,2,19,0,1,11,3,3
"353",1,7,"Stimuli\scenes\mainScenes\pexels-max-rahubovskiy-6782481.jpg",28,1136,"/?","R",1,564,896,669.6,1001.6,3,1,1,1,11,3,2
"354",1,7,"Stimuli\scenes\mainScenes\AdobeStock_41005076.jpeg",29,947,"z","L",1,1530,528,1635.6,633.6,3,12,0,1,1,3,2
"355",1,7,"Stimuli\scenes\mainScenes\pexels-curtis-adams-4258272.jpg",30,697,"z","L",1,186,562,291.6,667.6,2,19,0,0,0,0,0
"356",1,7,"Stimuli\scenes\mainScenes\pexels-curtis-adams-5008398.jpg",31,1419,"/?","R",1,116,534,221.6,639.6,3,11,1,0,0,0,0
"357",1,7,"Stimuli\scenes\mainScenes\AdobeStock_196997973.jpeg",32,1407,"z","L",1,1136,116,1241.6,221.6,1,1,0,0,0,0,0
"358",1,7,"Stimuli\scenes\mainScenes\pexels-jean-van-der-meulen-3753437.jpg",33,779,"/?","R",1,1088,218,1193.6,323.6,1,11,0,1,19,2,3
"359",1,7,"Stimuli\scenes\mainScenes\pexels-terry-magallanes-3623785.jpg",34,876,"z","L",1,528,442,633.6,547.6,3,1,1,1,11,3,1
"360",1,7,"Stimuli\scenes\mainScenes\pexels-max-rahubovskiy-6312077.jpg",35,840,"/?","R",1,488,900,593.6,1005.6,2,19,0,0,0,0,0
"361",1,7,"Stimuli\scenes\mainScenes\pexels-get-lost-mike-8504308.jpg",36,1175,"/?","R",1,1648,562,1753.6,667.6,3,12,0,1,19,1,2
"362",1,7,"Stimuli\scenes\mainScenes\pexels-max-rahubovskiy-6312078.jpg",37,1152,"/?","R",1,128,468,233.6,573.6,1,11,0,1,12,1,1
"363",1,7,"Stimuli\scenes\mainScenes\pexels-curtis-adams-7027760.jpg",38,1789,"/?","R",1,562,838,667.6,943.6,3,1,1,1,19,4,2
"364",1,7,"Stimuli\scenes\mainScenes\pexels-max-rahubovskiy-7060815.jpg",39,765,"z","L",1,786,564,891.6,669.6,3,19,1,0,0,0,0
"365",1,7,"Stimuli\scenes\mainScenes\pexels-curtis-adams-3958964.jpg",40,1198,"/?","R",1,990,538,1095.6,643.6,3,12,0,0,0,0,0
"366",1,7,"Stimuli\scenes\mainScenes\pexels-saviesa-home-2089698.jpg",41,1415,"z","L",1,476,820,581.6,925.6,2,19,0,1,12,2,3
"367",1,7,"Stimuli\scenes\mainScenes\pexels-max-rahubovskiy-6956124.jpg",42,797,"/?","R",1,594,282,699.6,387.6,1,11,0,0,0,0,0
"368",1,7,"Stimuli\scenes\mainScenes\pexels-curtis-adams-4469153.jpg",43,861,"/?","R",1,546,392,651.6,497.6,1,1,0,1,11,1,2
"369",1,7,"Stimuli\scenes\mainScenes\pexels-curtis-adams-4839334.jpg",44,1027,"/?","R",1,1398,496,1503.6,601.6,3,12,0,0,0,0,0
"370",1,7,"Stimuli\scenes\mainScenes\pexels-curtis-adams-7027852.jpg",45,1035,"z","L",1,1370,572,1475.6,677.6,2,19,0,0,0,0,0
"371",1,7,"Stimuli\scenes\mainScenes\022_L_filler_absent_lamp.jpg",46,1927,"/?","R",1,1568,318,1673.6,423.6,1,11,0,1,1,2,3
"372",1,7,"Stimuli\scenes\mainScenes\pexels-curtis-adams-3773573.jpg",47,939,"/?","R",1,932,388,1037.6,493.6,1,1,0,0,0,0,0
"373",1,7,"Stimuli\scenes\mainScenes\pexels-keegan-checks-10117731.jpg",48,1050,"/?","R",1,1290,548,1395.6,653.6,3,12,0,1,11,1,3
"374",1,7,"Stimuli\scenes\mainScenes\pexels-curtis-adams-10827337.jpg",49,671,"z","L",1,1026,624,1131.6,729.6,3,12,0,1,1,4,1
"375",1,7,"Stimuli\scenes\mainScenes\pexels-get-lost-mike-8561916.jpg",50,900,"z","L",1,1396,768,1501.6,873.6,3,11,1,1,12,1,3
"376",1,7,"Stimuli\scenes\mainScenes\AdobeStock_27579147.jpeg",51,944,"z","L",1,546,380,651.6,485.6,1,1,0,0,0,0,0
"377",1,7,"Stimuli\scenes\mainScenes\pexels-jesse-bannister-7033835.jpg",52,1059,"/?","R",1,1618,522,1723.6,627.6,3,19,1,0,0,0,0
"378",1,7,"Stimuli\scenes\mainScenes\080_L_filler_absent_plant.jpg",53,1120,"/?","R",1,478,904,583.6,1009.6,2,19,0,1,11,1,3
"379",1,7,"Stimuli\scenes\mainScenes\pexels-sharath-g-4722305.jpg",54,899,"/?","R",1,1446,300,1551.6,405.6,1,11,0,1,19,4,2
"380",1,7,"Stimuli\scenes\mainScenes\AdobeStock_216902237.jpeg",55,903,"z","L",1,338,476,443.6,581.6,3,12,0,0,0,0,0
"381",1,7,"Stimuli\scenes\mainScenes\pexels-curtis-adams-5353944.jpg",56,1119,"z","L",1,1644,132,1749.6,237.6,1,1,0,0,0,0,0
"382",1,7,"Stimuli\scenes\mainScenes\pexels-curtis-adams-4713242.jpg",57,1097,"z","L",1,282,884,387.6,989.6,2,19,0,1,1,2,1
"383",1,7,"Stimuli\scenes\mainScenes\pexels-curtis-adams-15062099.jpg",58,689,"/?","R",1,538,582,643.6,687.6,3,11,1,1,19,2,1
"384",1,7,"Stimuli\scenes\mainScenes\073_L_filler_absent_coffeemug.jpg",59,726,"z","L",1,474,290,579.6,395.6,1,1,0,0,0,0,0
"385",1,7,"Stimuli\scenes\mainScenes\pexels-gustavo-galeano-maz-11315956.jpg",60,1434,"z","L",1,914,950,1019.6,1055.6,2,12,1,0,0,0,0
"386",2,1,"Stimuli\scenes\practiceScenes\pexels-curtis-adams-5353881.jpg",1,NA,"nan","L",2,670,930,766,1026,2,4,0,0,0,0,0
"387",2,1,"Stimuli\scenes\practiceScenes\pexels-curtis-adams-10099319.jpg",2,1654,"z","L",1,318,846,414,942,2,5,0,0,0,0,0
"388",2,1,"Stimuli\scenes\practiceScenes\pexels-curtis-adams-5502249.jpg",3,1707,"z","L",1,686,124,782,220,1,14,0,0,0,0,0
"389",2,1,"Stimuli\scenes\practiceScenes\pexels-curtis-adams-15062155.jpg",4,1702,"z","L",1,1156,568,1252,664,3,11,0,0,0,0,0
"390",2,1,"Stimuli\scenes\practiceScenes\pexels-curtis-adams-6510985.jpg",5,1393,"z","L",1,640,968,736,1064,2,4,0,0,0,0,0
"391",2,1,"Stimuli\scenes\practiceScenes\079_L_filler_absent_bowl.jpg",6,906,"z","L",1,346,850,442,946,2,5,0,0,0,0,0
"392",2,1,"Stimuli\scenes\practiceScenes\pexels-hakim-santoso-3634740.jpg",7,1229,"z","L",1,280,650,376,746,3,11,0,0,0,0,0
"393",2,1,"Stimuli\scenes\practiceScenes\AdobeStock_142522611.jpeg",8,1288,"z","R",0,764,314,860,410,1,14,0,0,0,0,0
"394",2,1,"Stimuli\scenes\practiceScenes\pexels-curtis-adams-5698015.jpg",9,1124,"/?","R",1,1472,948,1568,1044,2,4,0,0,0,0,0
"395",2,1,"Stimuli\scenes\practiceScenes\pexels-max-rahubovskiy-6969860.jpg",10,1095,"z","L",1,838,952,934,1048,2,5,0,0,0,0,0
"396",2,1,"Stimuli\scenes\practiceScenes\pexels-curtis-adams-3958951.jpg",11,2163,"/?","R",1,1710,546,1806,642,3,11,0,0,0,0,0
"397",2,1,"Stimuli\scenes\practiceScenes\AdobeStock_67849508.jpeg",12,1428,"z","L",1,864,454,960,550,1,14,0,0,0,0,0
"398",2,1,"Stimuli\scenes\practiceScenes\pexels-curtis-adams-8583543.jpg",13,1928,"z","L",1,1582,886,1678,982,2,4,0,0,0,0,0
"399",2,1,"Stimuli\scenes\practiceScenes\AdobeStock_133612805.jpeg",14,2923,"z","L",1,1136,850,1232,946,2,5,0,0,0,0,0
"400",2,1,"Stimuli\scenes\practiceScenes\AdobeStock_283829914.jpeg",15,1407,"/?","R",1,1588,488,1684,584,3,11,0,0,0,0,0
"401",2,1,"Stimuli\scenes\practiceScenes\AdobeStock_300087971.jpeg",16,1598,"/?","R",1,862,486,958,582,1,14,0,0,0,0,0
"402",2,1,"Stimuli\scenes\practiceScenes\077_L_filler_absent_footrest.jpg",17,1230,"/?","R",1,430,716,526,812,2,4,0,0,0,0,0
"403",2,1,"Stimuli\scenes\practiceScenes\pexels-christa-grover-2001944.jpg",18,2182,"z","L",1,1436,540,1532,636,3,11,0,0,0,0,0
"404",2,1,"Stimuli\scenes\practiceScenes\AdobeStock_490760493.jpeg",19,1069,"/?","R",1,306,322,402,418,1,14,0,0,0,0,0
"405",2,1,"Stimuli\scenes\practiceScenes\pexels-keegan-checks-10117737.jpg",20,954,"/?","R",1,1532,956,1628,1052,2,5,0,0,0,0,0
"406",2,1,"Stimuli\scenes\practiceScenes\pexels-curtis-adams-14495889.jpg",21,1212,"z","L",1,784,978,880,1074,2,4,0,0,0,0,0
"407",2,1,"Stimuli\scenes\practiceScenes\pexels-pixabay-279648.jpg",22,1284,"/?","R",1,1756,478,1852,574,3,11,0,0,0,0,0
"408",2,1,"Stimuli\scenes\practiceScenes\pexels-curtis-adams-8186506.jpg",23,2808,"/?","R",1,944,570,1040,666,2,5,0,0,0,0,0
"409",2,1,"Stimuli\scenes\practiceScenes\075_L_filler_absent_light.jpg",24,2456,"/?","R",1,656,436,752,532,1,14,0,0,0,0,0
"410",2,2,"Stimuli\scenes\mainScenes\pexels-curtis-adams-7601172.jpg",1,1331,"/?","R",1,1300,276,1405.6,381.6,1,14,0,1,4,2,1
"411",2,2,"Stimuli\scenes\mainScenes\pexels-curtis-adams-7027786.jpg",2,950,"/?","R",1,1174,922,1279.6,1027.6,2,4,0,0,0,0,0
"412",2,2,"Stimuli\scenes\mainScenes\pexels-terry-magallanes-3623785.jpg",3,1007,"z","L",1,1070,902,1175.6,1007.6,2,5,0,1,14,1,3
"413",2,2,"Stimuli\scenes\mainScenes\pexels-max-rahubovskiy-7214338.jpg",4,1391,"z","L",1,1334,944,1439.6,1049.6,2,11,1,1,4,3,1
"414",2,2,"Stimuli\scenes\mainScenes\pexels-max-rahubovskiy-7005450.jpg",5,870,"z","L",1,1034,802,1139.6,907.6,2,4,0,1,14,4,1
"415",2,2,"Stimuli\scenes\mainScenes\pexels-mark-mccammon-1080721.jpg",6,1011,"/?","R",1,408,214,513.6,319.6,1,11,1,0,0,0,0
"416",2,2,"Stimuli\scenes\mainScenes\pexels-alex-qian-2343467.jpg",7,973,"z","L",1,1494,436,1599.6,541.6,1,14,0,0,0,0,0
"417",2,2,"Stimuli\scenes\mainScenes\pexels-curtis-adams-4119833.jpg",8,878,"/?","R",1,820,934,925.6,1039.6,2,5,0,0,0,0,0
"418",2,2,"Stimuli\scenes\mainScenes\pexels-curtis-adams-5008407.jpg",9,1427,"z","L",1,104,590,209.6,695.6,3,4,1,1,5,4,1
"419",2,2,"Stimuli\scenes\mainScenes\pexels-sharath-g-4722305.jpg",10,1106,"/?","R",1,422,960,527.6,1065.6,2,5,0,0,0,0,0
"420",2,2,"Stimuli\scenes\mainScenes\073_L_filler_absent_coffeemug.jpg",11,1149,"z","L",1,1214,430,1319.6,535.6,3,11,0,1,4,2,1
"421",2,2,"Stimuli\scenes\mainScenes\pexels-pixabay-534151.jpg",12,1247,"z","L",1,142,204,247.6,309.6,1,14,0,0,0,0,0
"422",2,2,"Stimuli\scenes\mainScenes\pexels-max-rahubovskiy-7018399.jpg",13,1109,"/?","R",1,1332,544,1437.6,649.6,3,11,0,1,4,3,1
"423",2,2,"Stimuli\scenes\mainScenes\pexels-curtis-adams-4469155.jpg",14,1059,"/?","R",1,806,396,911.6,501.6,1,4,1,0,0,0,0
"424",2,2,"Stimuli\scenes\mainScenes\pexels-curtis-adams-4713242.jpg",15,1793,"z","L",1,266,606,371.6,711.6,2,5,0,0,0,0,0
"425",2,2,"Stimuli\scenes\mainScenes\pexels-curtis-adams-7028072.jpg",16,902,"/?","R",1,1188,146,1293.6,251.6,1,14,0,1,11,3,2
"426",2,2,"Stimuli\scenes\mainScenes\AdobeStock_27579147.jpeg",17,2306,"/?","R",1,1282,470,1387.6,575.6,3,11,0,0,0,0,0
"427",2,2,"Stimuli\scenes\mainScenes\pexels-curtis-adams-3773573.jpg",18,813,"/?","R",1,280,684,385.6,789.6,3,4,1,0,0,0,0
"428",2,2,"Stimuli\scenes\mainScenes\pexels-max-rahubovskiy-6312077.jpg",19,869,"/?","R",1,1548,448,1653.6,553.6,1,14,0,1,11,2,2
"429",2,2,"Stimuli\scenes\mainScenes\pexels-loi-bui-trong-17181942.jpg",20,803,"/?","R",1,576,920,681.6,1025.6,2,5,0,0,0,0,0
"430",2,2,"Stimuli\scenes\mainScenes\pexels-level-media-3016430.jpg",21,739,"/?","R",1,1628,362,1733.6,467.6,1,14,0,1,5,2,3
"431",2,2,"Stimuli\scenes\mainScenes\pexels-curtis-adams-4713243.jpg",22,1359,"z","L",1,1354,888,1459.6,993.6,2,4,0,1,14,4,3
"432",2,2,"Stimuli\scenes\mainScenes\pexels-max-rahubovskiy-7061668.jpg",23,1256,"/?","R",1,44,420,149.6,525.6,1,5,1,1,14,3,3
"433",2,2,"Stimuli\scenes\mainScenes\pexels-jean-van-der-meulen-1599791.jpg",24,1037,"z","L",1,1128,738,1233.6,843.6,3,11,0,0,0,0,0
"434",2,2,"Stimuli\scenes\mainScenes\pexels-max-rahubovskiy-6956124.jpg",25,1106,"z","L",1,1148,914,1253.6,1019.6,2,4,0,1,14,2,3
"435",2,2,"Stimuli\scenes\mainScenes\pexels-curtis-adams-10827398.jpg",26,2087,"z","L",1,1572,662,1677.6,767.6,3,11,0,1,5,4,1
"436",2,2,"Stimuli\scenes\mainScenes\pexels-curtis-adams-4221389.jpg",27,1467,"/?","R",1,474,108,579.6,213.6,1,5,1,0,0,0,0
"437",2,2,"Stimuli\scenes\mainScenes\pexels-keegan-checks-10117731.jpg",28,2009,"z","L",1,638,334,743.6,439.6,1,14,0,0,0,0,0
"438",2,2,"Stimuli\scenes\mainScenes\pexels-max-rahubovskiy-6956843.jpg",29,1231,"z","L",1,508,888,613.6,993.6,2,4,0,0,0,0,0
"439",2,2,"Stimuli\scenes\mainScenes\041_L_filler_absent_fruit.jpg",30,1766,"/?","R",1,374,744,479.6,849.6,3,11,0,1,14,4,2
"440",2,2,"Stimuli\scenes\mainScenes\022_L_filler_absent_lamp.jpg",31,1127,"z","L",1,676,112,781.6,217.6,1,5,1,1,11,3,1
"441",2,2,"Stimuli\scenes\mainScenes\pexels-curtis-adams-6835139.jpg",32,1467,"z","L",1,950,260,1055.6,365.6,1,14,0,0,0,0,0
"442",2,2,"Stimuli\scenes\mainScenes\pexels-jesse-bannister-7033835.jpg",33,1169,"z","L",1,1618,522,1723.6,627.6,3,11,0,0,0,0,0
"443",2,2,"Stimuli\scenes\mainScenes\pexels-curtis-adams-6835079.jpg",34,923,"z","L",1,1010,910,1115.6,1015.6,2,4,0,1,5,4,1
"444",2,2,"Stimuli\scenes\mainScenes\pexels-curtis-adams-5353944.jpg",35,792,"/?","R",1,794,580,899.6,685.6,3,5,1,1,4,3,2
"445",2,2,"Stimuli\scenes\mainScenes\pexels-max-rahubovskiy-7031868.jpg",36,896,"/?","R",1,1686,360,1791.6,465.6,1,14,0,1,5,4,1
"446",2,2,"Stimuli\scenes\mainScenes\pexels-curtis-adams-3990599.jpg",37,1398,"/?","R",1,384,404,489.6,509.6,3,4,1,0,0,0,0
"447",2,2,"Stimuli\scenes\mainScenes\pexels-curtis-adams-15062094.jpg",38,799,"/?","R",1,1230,578,1335.6,683.6,3,11,0,0,0,0,0
"448",2,2,"Stimuli\scenes\mainScenes\pexels-max-rahubovskiy-6782481.jpg",39,927,"z","L",1,646,522,751.6,627.6,1,14,0,1,5,3,2
"449",2,2,"Stimuli\scenes\mainScenes\pexels-curtis-adams-4800177.jpg",40,1757,"z","L",1,360,678,465.6,783.6,2,5,0,0,0,0,0
"450",2,2,"Stimuli\scenes\mainScenes\pexels-get-lost-mike-8561916.jpg",41,1344,"z","L",1,1666,914,1771.6,1019.6,2,4,0,0,0,0,0
"451",2,2,"Stimuli\scenes\mainScenes\pexels-skitterphoto-349749.jpg",42,1081,"z","L",1,1704,598,1809.6,703.6,3,11,0,1,4,4,3
"452",2,2,"Stimuli\scenes\mainScenes\pexels-curtis-adams-10827337.jpg",43,1029,"z","L",1,648,914,753.6,1019.6,2,5,0,1,14,4,1
"453",2,2,"Stimuli\scenes\mainScenes\pexels-curtis-adams-8031902.jpg",44,1845,"z","L",1,308,188,413.6,293.6,1,14,0,1,5,1,2
"454",2,2,"Stimuli\scenes\mainScenes\pexels-curtis-adams-8186477.jpg",45,1221,"/?","R",1,246,258,351.6,363.6,1,14,0,0,0,0,0
"455",2,2,"Stimuli\scenes\mainScenes\pexels-curtis-adams-3935337.jpg",46,1820,"z","L",1,1528,776,1633.6,881.6,3,11,0,0,0,0,0
"456",2,2,"Stimuli\scenes\mainScenes\pexels-ryan-donnelly-100575.jpg",47,1340,"z","L",1,1428,382,1533.6,487.6,1,4,1,1,14,2,2
"457",2,2,"Stimuli\scenes\mainScenes\pexels-curtis-adams-15062099.jpg",48,783,"z","L",1,538,582,643.6,687.6,3,5,1,0,0,0,0
"458",2,2,"Stimuli\scenes\mainScenes\pexels-curtis-adams-3958964.jpg",49,794,"/?","R",1,990,538,1095.6,643.6,3,4,1,0,0,0,0
"459",2,2,"Stimuli\scenes\mainScenes\pexels-max-rahubovskiy-7587482.jpg",50,1746,"z","L",1,438,562,543.6,667.6,3,11,0,1,14,4,3
"460",2,2,"Stimuli\scenes\mainScenes\080_L_filler_absent_plant.jpg",51,1613,"z","L",1,478,904,583.6,1009.6,2,5,0,1,4,2,3
"461",2,2,"Stimuli\scenes\mainScenes\AdobeStock_214273596.jpeg",52,1644,"/?","R",1,808,472,913.6,577.6,1,14,0,0,0,0,0
"462",2,2,"Stimuli\scenes\mainScenes\pexels-get-lost-mike-9993440.jpg",53,1563,"z","L",1,254,594,359.6,699.6,1,14,0,0,0,0,0
"463",2,2,"Stimuli\scenes\mainScenes\AdobeStock_216902241.jpeg",54,932,"/?","R",1,1414,352,1519.6,457.6,3,4,1,1,11,3,2
"464",2,2,"Stimuli\scenes\mainScenes\pexels-denys-gromov-4716789.jpg",55,1183,"z","L",1,316,486,421.6,591.6,3,11,0,1,4,3,2
"465",2,2,"Stimuli\scenes\mainScenes\pexels-curtis-adams-5900806.jpg",56,1943,"/?","R",1,1744,854,1849.6,959.6,2,5,0,0,0,0,0
"466",2,2,"Stimuli\scenes\mainScenes\AdobeStock_216902237.jpeg",57,2825,"/?","R",1,1254,226,1359.6,331.6,1,14,0,0,0,0,0
"467",2,2,"Stimuli\scenes\mainScenes\pexels-gustavo-galeano-maz-8363713.jpg",58,1185,"z","L",1,678,920,783.6,1025.6,2,4,0,0,0,0,0
"468",2,2,"Stimuli\scenes\mainScenes\pexels-alexander-zvir-4252510.jpg",59,2034,"/?","R",1,1540,508,1645.6,613.6,3,11,0,1,14,2,2
"469",2,2,"Stimuli\scenes\mainScenes\pexels-max-rahubovskiy-8082201.jpg",60,1496,"z","L",1,1278,86,1383.6,191.6,1,5,1,0,0,0,0
"470",2,3,"Stimuli\scenes\mainScenes\pexels-get-lost-mike-8504308.jpg",1,986,"z","L",1,1414,928,1519.6,1033.6,2,4,0,0,0,0,0
"471",2,3,"Stimuli\scenes\mainScenes\pexels-curtis-adams-4682110.jpg",2,1271,"/?","R",1,386,500,491.6,605.6,3,11,0,1,4,3,1
"472",2,3,"Stimuli\scenes\mainScenes\pexels-max-rahubovskiy-6980568.jpg",3,867,"z","L",1,1012,942,1117.6,1047.6,2,5,0,1,14,4,1
"473",2,3,"Stimuli\scenes\mainScenes\pexels-get-lost-mike-10450051.jpg",4,1023,"/?","R",1,1048,868,1153.6,973.6,2,14,1,1,11,3,3
"474",2,3,"Stimuli\scenes\mainScenes\pexels-curtis-adams-7027852.jpg",5,1070,"/?","R",1,1610,582,1715.6,687.6,3,11,0,1,5,2,2
"475",2,3,"Stimuli\scenes\mainScenes\AdobeStock_196997973.jpeg",6,1036,"z","L",1,1136,116,1241.6,221.6,1,14,0,0,0,0,0
"476",2,3,"Stimuli\scenes\mainScenes\pexels-loi-bui-trong-17158669.jpg",7,842,"z","L",1,1262,854,1367.6,959.6,2,4,0,0,0,0,0
"477",2,3,"Stimuli\scenes\mainScenes\pexels-curtis-adams-15062154.jpg",8,856,"/?","R",1,846,916,951.6,1021.6,2,5,0,1,14,3,3
"478",2,3,"Stimuli\scenes\mainScenes\pexels-curtis-adams-4258272.jpg",9,1070,"/?","R",1,186,562,291.6,667.6,2,4,0,1,11,3,1
"479",2,3,"Stimuli\scenes\mainScenes\pexels-gustavo-galeano-maz-11315956.jpg",10,1435,"z","L",1,864,288,969.6,393.6,1,5,1,1,11,3,3
"480",2,3,"Stimuli\scenes\mainScenes\pexels-loi-bui-trong-17158648.jpg",11,1456,"/?","R",1,164,826,269.6,931.6,2,14,1,0,0,0,0
"481",2,3,"Stimuli\scenes\mainScenes\pexels-curtis-adams-5502217.jpg",12,950,"z","L",1,1480,828,1585.6,933.6,3,11,0,0,0,0,0
"482",2,3,"Stimuli\scenes\mainScenes\pexels-pixabay-271647.jpg",13,1432,"z","L",1,1518,362,1623.6,467.6,1,14,0,0,0,0,0
"483",2,3,"Stimuli\scenes\mainScenes\pexels-curtis-adams-7601072.jpg",14,1184,"/?","R",1,462,522,567.6,627.6,3,11,0,1,5,2,1
"484",2,3,"Stimuli\scenes\mainScenes\pexels-jean-van-der-meulen-3753437.jpg",15,1064,"/?","R",1,1088,218,1193.6,323.6,1,4,1,0,0,0,0
"485",2,3,"Stimuli\scenes\mainScenes\pexels-curtis-adams-4469153.jpg",16,1213,"/?","R",1,232,680,337.6,785.6,3,5,1,1,11,3,1
"486",2,3,"Stimuli\scenes\mainScenes\pexels-curtis-adams-5900798.jpg",17,917,"/?","R",1,414,934,519.6,1039.6,2,4,0,0,0,0,0
"487",2,3,"Stimuli\scenes\mainScenes\AdobeStock_461935168.jpeg",18,1152,"/?","L",0,462,566,567.6,671.6,3,11,0,1,5,1,3
"488",2,3,"Stimuli\scenes\mainScenes\pexels-curtis-adams-8583892.jpg",19,1228,"/?","R",1,878,892,983.6,997.6,2,5,0,1,14,4,1
"489",2,3,"Stimuli\scenes\mainScenes\AdobeStock_41005076.jpeg",20,2405,"/?","R",1,48,390,153.6,495.6,1,14,0,0,0,0,0
"490",2,3,"Stimuli\scenes\mainScenes\pexels-max-rahubovskiy-6969864.jpg",21,1591,"/?","R",1,1630,966,1735.6,1071.6,2,11,1,0,0,0,0
"491",2,3,"Stimuli\scenes\mainScenes\AdobeStock_479119675.jpeg",22,1047,"z","L",1,606,898,711.6,1003.6,2,4,0,1,5,4,3
"492",2,3,"Stimuli\scenes\mainScenes\pexels-saviesa-home-2089698.jpg",23,2040,"/?","R",1,712,328,817.6,433.6,1,14,0,1,4,2,3
"493",2,3,"Stimuli\scenes\mainScenes\pexels-curtis-adams-8583875.jpg",24,847,"/?","R",1,818,936,923.6,1041.6,2,5,0,0,0,0,0
"494",2,3,"Stimuli\scenes\mainScenes\pexels-curtis-adams-5008398.jpg",25,1333,"z","L",1,138,84,243.6,189.6,1,11,1,1,14,3,2
"495",2,3,"Stimuli\scenes\mainScenes\pexels-curtis-adams-7027760.jpg",26,951,"/?","R",1,1500,922,1605.6,1027.6,2,4,0,0,0,0,0
"496",2,3,"Stimuli\scenes\mainScenes\pexels-curtis-adams-4839334.jpg",27,906,"z","L",1,472,266,577.6,371.6,1,14,0,0,0,0,0
"497",2,3,"Stimuli\scenes\mainScenes\pexels-max-rahubovskiy-6312078.jpg",28,918,"/?","L",0,1014,852,1119.6,957.6,2,5,0,1,4,3,3
"498",2,3,"Stimuli\scenes\mainScenes\036_L_filler_absent_bowl.jpg",29,1719,"z","L",1,1396,536,1501.6,641.6,3,4,1,1,14,2,1
"499",2,3,"Stimuli\scenes\mainScenes\pexels-mark-mccammon-2724749.jpg",30,935,"z","L",1,1382,918,1487.6,1023.6,2,5,0,0,0,0,0
"500",2,3,"Stimuli\scenes\mainScenes\pexels-curtis-adams-15409439.jpg",31,1361,"z","L",1,1566,192,1671.6,297.6,1,14,0,1,11,4,2
"501",2,3,"Stimuli\scenes\mainScenes\pexels-curtis-adams-7027784.jpg",32,1643,"z","L",1,1466,458,1571.6,563.6,1,11,1,0,0,0,0
"502",2,3,"Stimuli\scenes\mainScenes\AdobeStock_106076039.jpeg",33,1010,"/?","R",1,1440,772,1545.6,877.6,2,4,0,0,0,0,0
"503",2,3,"Stimuli\scenes\mainScenes\pexels-max-rahubovskiy-6489116.jpg",34,1729,"/?","R",1,1558,748,1663.6,853.6,3,11,0,1,5,1,2
"504",2,3,"Stimuli\scenes\mainScenes\pexels-max-rahubovskiy-7061393.jpg",35,1446,"z","L",1,1562,118,1667.6,223.6,1,14,0,1,4,3,2
"505",2,3,"Stimuli\scenes\mainScenes\pexels-max-rahubovskiy-7060815.jpg",36,1496,"z","L",1,1692,930,1797.6,1035.6,2,5,0,0,0,0,0
"506",2,3,"Stimuli\scenes\mainScenes\pexels-curtis-adams-3958964.jpg",37,1381,"z","L",1,182,880,287.6,985.6,2,4,0,0,0,0,0
"507",2,3,"Stimuli\scenes\mainScenes\pexels-max-rahubovskiy-7061668.jpg",38,1221,"/?","R",1,44,420,149.6,525.6,1,14,0,0,0,0,0
"508",2,3,"Stimuli\scenes\mainScenes\pexels-curtis-adams-4119833.jpg",39,780,"z","L",1,732,540,837.6,645.6,3,5,1,1,14,1,1
"509",2,3,"Stimuli\scenes\mainScenes\pexels-max-rahubovskiy-7060815.jpg",40,2164,"z","L",1,1620,622,1725.6,727.6,3,11,0,1,5,1,1
"510",2,3,"Stimuli\scenes\mainScenes\pexels-max-rahubovskiy-6969864.jpg",41,1119,"/?","R",1,1156,476,1261.6,581.6,3,11,0,1,14,2,1
"511",2,3,"Stimuli\scenes\mainScenes\pexels-jean-van-der-meulen-1599791.jpg",42,1275,"z","L",1,850,922,955.6,1027.6,2,4,0,1,11,4,3
"512",2,3,"Stimuli\scenes\mainScenes\041_L_filler_absent_fruit.jpg",43,2065,"/?","R",1,374,268,479.6,373.6,1,14,0,0,0,0,0
"513",2,3,"Stimuli\scenes\mainScenes\AdobeStock_479119675.jpeg",44,1337,"/?","R",1,1472,158,1577.6,263.6,1,5,1,0,0,0,0
"514",2,3,"Stimuli\scenes\mainScenes\pexels-max-rahubovskiy-6489116.jpg",45,980,"/?","R",1,214,912,319.6,1017.6,2,4,0,0,0,0,0
"515",2,3,"Stimuli\scenes\mainScenes\pexels-curtis-adams-5008398.jpg",46,701,"/?","R",1,900,882,1005.6,987.6,2,5,0,0,0,0,0
"516",2,3,"Stimuli\scenes\mainScenes\pexels-gustavo-galeano-maz-8363713.jpg",47,1040,"/?","R",1,1120,650,1225.6,755.6,3,11,0,0,0,0,0
"517",2,3,"Stimuli\scenes\mainScenes\pexels-alexander-zvir-4252510.jpg",48,1400,"z","L",1,988,492,1093.6,597.6,1,14,0,1,5,2,2
"518",2,3,"Stimuli\scenes\mainScenes\AdobeStock_27579147.jpeg",49,1239,"z","L",1,324,816,429.6,921.6,2,4,0,1,5,3,3
"519",2,3,"Stimuli\scenes\mainScenes\pexels-terry-magallanes-3623785.jpg",50,1325,"/?","R",1,350,642,455.6,747.6,3,5,1,0,0,0,0
"520",2,3,"Stimuli\scenes\mainScenes\pexels-curtis-adams-5900798.jpg",51,1385,"z","L",1,1580,532,1685.6,637.6,3,11,0,1,4,1,1
"521",2,3,"Stimuli\scenes\mainScenes\pexels-pixabay-271647.jpg",52,953,"z","L",1,1320,526,1425.6,631.6,3,14,1,1,11,4,1
"522",2,3,"Stimuli\scenes\mainScenes\pexels-curtis-adams-5008407.jpg",53,1532,"z","L",1,774,192,879.6,297.6,1,14,0,1,4,2,2
"523",2,3,"Stimuli\scenes\mainScenes\pexels-sharath-g-4722305.jpg",54,1493,"/?","R",1,1446,848,1551.6,953.6,3,11,0,1,4,4,2
"524",2,3,"Stimuli\scenes\mainScenes\pexels-max-rahubovskiy-6312077.jpg",55,1506,"/?","R",1,1684,638,1789.6,743.6,3,4,1,1,14,2,2
"525",2,3,"Stimuli\scenes\mainScenes\pexels-curtis-adams-15409439.jpg",56,2486,"z","L",1,1566,192,1671.6,297.6,1,5,1,0,0,0,0
"526",2,3,"Stimuli\scenes\mainScenes\pexels-curtis-adams-8031902.jpg",57,875,"/?","R",1,716,780,821.6,885.6,2,4,0,0,0,0,0
"527",2,3,"Stimuli\scenes\mainScenes\AdobeStock_461935168.jpeg",58,1400,"z","L",1,806,602,911.6,707.6,2,5,0,0,0,0,0
"528",2,3,"Stimuli\scenes\mainScenes\pexels-curtis-adams-7027786.jpg",59,1432,"z","L",1,894,568,999.6,673.6,3,11,0,1,14,3,2
"529",2,3,"Stimuli\scenes\mainScenes\pexels-get-lost-mike-10450051.jpg",60,1686,"z","L",1,1324,212,1429.6,317.6,1,14,0,0,0,0,0
"530",2,4,"Stimuli\scenes\mainScenes\pexels-jean-van-der-meulen-3753437.jpg",1,1730,"z","L",1,340,460,445.6,565.6,3,4,1,1,11,4,2
"531",2,4,"Stimuli\scenes\mainScenes\073_L_filler_absent_coffeemug.jpg",2,1346,"z","L",1,474,290,579.6,395.6,1,14,0,1,11,4,3
"532",2,4,"Stimuli\scenes\mainScenes\pexels-level-media-3016430.jpg",3,713,"/?","R",1,912,662,1017.6,767.6,3,11,0,0,0,0,0
"533",2,4,"Stimuli\scenes\mainScenes\pexels-curtis-adams-3773573.jpg",4,892,"/?","R",1,986,920,1091.6,1025.6,2,5,0,0,0,0,0
"534",2,4,"Stimuli\scenes\mainScenes\pexels-curtis-adams-3990599.jpg",5,961,"z","L",1,680,516,785.6,621.6,2,4,0,1,14,2,3
"535",2,4,"Stimuli\scenes\mainScenes\pexels-max-rahubovskiy-7031868.jpg",6,778,"/?","R",1,730,848,835.6,953.6,2,5,0,1,11,1,3
"536",2,4,"Stimuli\scenes\mainScenes\pexels-curtis-adams-3935337.jpg",7,1028,"z","L",1,948,188,1053.6,293.6,1,11,1,0,0,0,0
"537",2,4,"Stimuli\scenes\mainScenes\pexels-curtis-adams-4713242.jpg",8,1155,"z","L",1,662,442,767.6,547.6,1,14,0,0,0,0,0
"538",2,4,"Stimuli\scenes\mainScenes\pexels-get-lost-mike-9993440.jpg",9,838,"z","L",1,860,678,965.6,783.6,2,4,0,1,11,2,1
"539",2,4,"Stimuli\scenes\mainScenes\pexels-curtis-adams-15062094.jpg",10,1300,"z","L",1,340,892,445.6,997.6,2,5,0,0,0,0,0
"540",2,4,"Stimuli\scenes\mainScenes\pexels-curtis-adams-5502217.jpg",11,1232,"/?","R",1,1566,180,1671.6,285.6,1,14,0,1,11,2,3
"541",2,4,"Stimuli\scenes\mainScenes\pexels-curtis-adams-15062154.jpg",12,1271,"/?","R",1,622,704,727.6,809.6,3,11,0,0,0,0,0
"542",2,4,"Stimuli\scenes\mainScenes\036_L_filler_absent_bowl.jpg",13,2660,"/?","R",1,1396,536,1501.6,641.6,3,11,0,1,4,1,2
"543",2,4,"Stimuli\scenes\mainScenes\pexels-curtis-adams-4469153.jpg",14,1050,"z","L",1,546,392,651.6,497.6,1,14,0,0,0,0,0
"544",2,4,"Stimuli\scenes\mainScenes\pexels-ryan-donnelly-100575.jpg",15,1304,"z","L",1,1572,698,1677.6,803.6,3,4,1,0,0,0,0
"545",2,4,"Stimuli\scenes\mainScenes\pexels-curtis-adams-4839334.jpg",16,1740,"z","L",1,472,266,577.6,371.6,1,5,1,1,4,1,3
"546",2,4,"Stimuli\scenes\mainScenes\pexels-loi-bui-trong-17158648.jpg",17,1302,"/?","R",1,1538,826,1643.6,931.6,2,11,1,0,0,0,0
"547",2,4,"Stimuli\scenes\mainScenes\pexels-curtis-adams-4258272.jpg",18,1170,"z","L",1,1724,318,1829.6,423.6,1,14,0,1,5,1,3
"548",2,4,"Stimuli\scenes\mainScenes\022_L_filler_absent_lamp.jpg",19,987,"z","L",1,164,876,269.6,981.6,2,4,0,0,0,0,0
"549",2,4,"Stimuli\scenes\mainScenes\pexels-max-rahubovskiy-6956843.jpg",20,914,"z","L",1,508,888,613.6,993.6,2,5,0,0,0,0,0
"550",2,4,"Stimuli\scenes\mainScenes\pexels-curtis-adams-7027784.jpg",21,1199,"z","L",1,254,730,359.6,835.6,3,4,1,1,14,1,1
"551",2,4,"Stimuli\scenes\mainScenes\pexels-max-rahubovskiy-8082201.jpg",22,924,"z","L",1,1278,86,1383.6,191.6,1,14,0,1,5,1,3
"552",2,4,"Stimuli\scenes\mainScenes\pexels-saviesa-home-2089698.jpg",23,1150,"/?","R",1,476,820,581.6,925.6,2,5,0,0,0,0,0
"553",2,4,"Stimuli\scenes\mainScenes\AdobeStock_41005076.jpeg",24,1456,"/?","R",1,1530,528,1635.6,633.6,3,11,0,1,4,2,1
"554",2,4,"Stimuli\scenes\mainScenes\pexels-max-rahubovskiy-7005450.jpg",25,1122,"/?","R",1,656,470,761.6,575.6,1,14,0,1,4,2,2
"555",2,4,"Stimuli\scenes\mainScenes\pexels-curtis-adams-15062099.jpg",26,1014,"/?","R",1,1444,918,1549.6,1023.6,2,4,0,0,0,0,0
"556",2,4,"Stimuli\scenes\mainScenes\pexels-jesse-bannister-7033835.jpg",27,1021,"z","L",1,1618,522,1723.6,627.6,3,11,0,1,4,1,1
"557",2,4,"Stimuli\scenes\mainScenes\pexels-curtis-adams-8583892.jpg",28,741,"z","L",1,878,892,983.6,997.6,2,5,0,1,14,1,3
"558",2,4,"Stimuli\scenes\mainScenes\AdobeStock_196997973.jpeg",29,1303,"/?","R",1,1136,116,1241.6,221.6,1,14,0,0,0,0,0
"559",2,4,"Stimuli\scenes\mainScenes\AdobeStock_106076039.jpeg",30,1363,"/?","R",1,1658,480,1763.6,585.6,3,4,1,1,11,4,2
"560",2,4,"Stimuli\scenes\mainScenes\pexels-alex-qian-2343467.jpg",31,1620,"/?","R",1,1202,910,1307.6,1015.6,2,11,1,0,0,0,0
"561",2,4,"Stimuli\scenes\mainScenes\pexels-denys-gromov-4716789.jpg",32,980,"z","L",1,644,898,749.6,1003.6,2,5,0,0,0,0,0
"562",2,4,"Stimuli\scenes\mainScenes\pexels-get-lost-mike-8504308.jpg",33,1036,"/?","R",1,1674,314,1779.6,419.6,1,11,1,1,14,2,3
"563",2,4,"Stimuli\scenes\mainScenes\pexels-curtis-adams-5353944.jpg",34,875,"z","L",1,1550,928,1655.6,1033.6,2,4,0,1,14,1,3
"564",2,4,"Stimuli\scenes\mainScenes\pexels-curtis-adams-7027760.jpg",35,1024,"/?","R",1,1500,922,1605.6,1027.6,2,5,0,0,0,0,0
"565",2,4,"Stimuli\scenes\mainScenes\pexels-curtis-adams-4221389.jpg",36,1150,"z","L",1,474,108,579.6,213.6,1,14,0,1,11,4,2
"566",2,4,"Stimuli\scenes\mainScenes\pexels-curtis-adams-5900806.jpg",37,920,"z","R",0,406,310,511.6,415.6,1,14,0,0,0,0,0
"567",2,4,"Stimuli\scenes\mainScenes\pexels-curtis-adams-4800177.jpg",38,1837,"z","L",1,386,140,491.6,245.6,1,11,1,0,0,0,0
"568",2,4,"Stimuli\scenes\mainScenes\pexels-gustavo-galeano-maz-11315956.jpg",39,1077,"z","L",1,914,950,1019.6,1055.6,2,4,0,1,14,3,3
"569",2,4,"Stimuli\scenes\mainScenes\pexels-mark-mccammon-2724749.jpg",40,882,"/?","R",1,1382,918,1487.6,1023.6,2,5,0,0,0,0,0
"570",2,4,"Stimuli\scenes\mainScenes\pexels-curtis-adams-6835079.jpg",41,783,"/?","R",1,1010,910,1115.6,1015.6,2,4,0,0,0,0,0
"571",2,4,"Stimuli\scenes\mainScenes\pexels-curtis-adams-10827398.jpg",42,1580,"/?","R",1,1572,662,1677.6,767.6,3,14,1,0,0,0,0
"572",2,4,"Stimuli\scenes\mainScenes\pexels-max-rahubovskiy-7018399.jpg",43,869,"z","L",1,1292,936,1397.6,1041.6,2,5,0,1,11,1,3
"573",2,4,"Stimuli\scenes\mainScenes\pexels-curtis-adams-4469155.jpg",44,1466,"z","L",1,468,534,573.6,639.6,3,11,0,0,0,0,0
"574",2,4,"Stimuli\scenes\mainScenes\pexels-curtis-adams-4682110.jpg",45,1031,"z","L",1,386,500,491.6,605.6,3,11,0,0,0,0,0
"575",2,4,"Stimuli\scenes\mainScenes\pexels-mark-mccammon-1080721.jpg",46,1238,"z","L",1,160,886,265.6,991.6,2,14,1,1,4,3,1
"576",2,4,"Stimuli\scenes\mainScenes\pexels-curtis-adams-8186477.jpg",47,1108,"/?","R",1,1298,954,1403.6,1059.6,2,4,0,1,14,1,3
"577",2,4,"Stimuli\scenes\mainScenes\pexels-loi-bui-trong-17181942.jpg",48,1112,"z","L",1,576,920,681.6,1025.6,2,5,0,1,4,3,3
"578",2,4,"Stimuli\scenes\mainScenes\080_L_filler_absent_plant.jpg",49,1325,"z","L",1,756,212,861.6,317.6,1,14,0,0,0,0,0
"579",2,4,"Stimuli\scenes\mainScenes\pexels-pixabay-534151.jpg",50,794,"z","L",1,1278,696,1383.6,801.6,2,4,0,1,11,3,1
"580",2,4,"Stimuli\scenes\mainScenes\pexels-max-rahubovskiy-6782481.jpg",51,747,"z","L",1,1028,938,1133.6,1043.6,2,5,0,0,0,0,0
"581",2,4,"Stimuli\scenes\mainScenes\pexels-curtis-adams-8583875.jpg",52,773,"/?","R",1,766,578,871.6,683.6,3,11,0,0,0,0,0
"582",2,4,"Stimuli\scenes\mainScenes\pexels-max-rahubovskiy-6956124.jpg",53,1926,"z","L",1,1148,914,1253.6,1019.6,2,4,0,1,5,2,3
"583",2,4,"Stimuli\scenes\mainScenes\pexels-curtis-adams-7601172.jpg",54,865,"/?","R",1,820,434,925.6,539.6,1,5,1,0,0,0,0
"584",2,4,"Stimuli\scenes\mainScenes\pexels-curtis-adams-7027852.jpg",55,1383,"z","L",1,1610,582,1715.6,687.6,3,14,1,1,5,4,1
"585",2,4,"Stimuli\scenes\mainScenes\pexels-max-rahubovskiy-7587482.jpg",56,1038,"z","L",1,438,562,543.6,667.6,3,11,0,1,14,4,3
"586",2,4,"Stimuli\scenes\mainScenes\pexels-skitterphoto-349749.jpg",57,1397,"z","L",1,1704,598,1809.6,703.6,3,11,0,1,5,3,2
"587",2,4,"Stimuli\scenes\mainScenes\pexels-keegan-checks-10117731.jpg",58,917,"z","L",1,638,334,743.6,439.6,1,14,0,0,0,0,0
"588",2,4,"Stimuli\scenes\mainScenes\AdobeStock_216902241.jpeg",59,2128,"/?","R",1,584,832,689.6,937.6,2,4,0,0,0,0,0
"589",2,4,"Stimuli\scenes\mainScenes\pexels-curtis-adams-10827337.jpg",60,859,"/?","R",1,648,914,753.6,1019.6,2,5,0,0,0,0,0
"590",2,5,"Stimuli\scenes\mainScenes\AdobeStock_214273596.jpeg",1,1022,"/?","R",1,808,472,913.6,577.6,1,11,1,1,5,1,3
"591",2,5,"Stimuli\scenes\mainScenes\pexels-loi-bui-trong-17158669.jpg",2,651,"z","L",1,738,606,843.6,711.6,3,4,1,0,0,0,0
"592",2,5,"Stimuli\scenes\mainScenes\pexels-curtis-adams-4713243.jpg",3,1665,"/?","R",1,1354,888,1459.6,993.6,2,5,0,1,4,2,1
"593",2,5,"Stimuli\scenes\mainScenes\pexels-curtis-adams-7028072.jpg",4,1359,"z","L",1,1188,146,1293.6,251.6,1,14,0,1,4,3,2
"594",2,5,"Stimuli\scenes\mainScenes\AdobeStock_216902237.jpeg",5,1352,"/?","R",1,338,476,443.6,581.6,3,11,0,1,14,1,2
"595",2,5,"Stimuli\scenes\mainScenes\pexels-get-lost-mike-8561916.jpg",6,1522,"z","L",1,1666,914,1771.6,1019.6,2,4,0,1,14,1,3
"596",2,5,"Stimuli\scenes\mainScenes\pexels-max-rahubovskiy-6312078.jpg",7,1171,"z","L",1,128,468,233.6,573.6,1,14,0,0,0,0,0
"597",2,5,"Stimuli\scenes\mainScenes\pexels-curtis-adams-7601072.jpg",8,781,"z","L",1,590,926,695.6,1031.6,2,5,0,0,0,0,0
"598",2,5,"Stimuli\scenes\mainScenes\pexels-max-rahubovskiy-6980568.jpg",9,773,"z","L",1,778,450,883.6,555.6,1,4,1,0,0,0,0
"599",2,5,"Stimuli\scenes\mainScenes\pexels-curtis-adams-6835139.jpg",10,1567,"z","L",1,246,756,351.6,861.6,3,11,0,0,0,0,0
"600",2,5,"Stimuli\scenes\mainScenes\pexels-max-rahubovskiy-7061393.jpg",11,703,"/?","R",1,982,884,1087.6,989.6,2,5,0,1,14,2,1
"601",2,5,"Stimuli\scenes\mainScenes\pexels-max-rahubovskiy-7214338.jpg",12,1699,"z","L",1,1334,944,1439.6,1049.6,2,14,1,1,4,4,2
"602",2,5,"Stimuli\scenes\mainScenes\pexels-curtis-adams-5353944.jpg",13,719,"z","L",1,794,580,899.6,685.6,3,11,0,1,4,4,1
"603",2,5,"Stimuli\scenes\mainScenes\pexels-max-rahubovskiy-7005450.jpg",14,1410,"z","L",1,1210,150,1315.6,255.6,1,14,0,1,4,1,1
"604",2,5,"Stimuli\scenes\mainScenes\pexels-curtis-adams-5008398.jpg",15,673,"z","L",1,900,882,1005.6,987.6,2,4,0,1,14,2,3
"605",2,5,"Stimuli\scenes\mainScenes\pexels-curtis-adams-15409439.jpg",16,743,"/?","R",1,684,694,789.6,799.6,2,5,0,0,0,0,0
"606",2,5,"Stimuli\scenes\mainScenes\pexels-pixabay-534151.jpg",17,1026,"z","L",1,170,656,275.6,761.6,3,11,0,0,0,0,0
"607",2,5,"Stimuli\scenes\mainScenes\pexels-curtis-adams-5900798.jpg",18,1577,"/?","R",1,88,190,193.6,295.6,1,4,1,1,14,3,2
"608",2,5,"Stimuli\scenes\mainScenes\pexels-max-rahubovskiy-7031868.jpg",19,865,"z","L",1,108,660,213.6,765.6,3,5,1,0,0,0,0
"609",2,5,"Stimuli\scenes\mainScenes\pexels-curtis-adams-15062154.jpg",20,806,"z","L",1,534,340,639.6,445.6,1,14,0,0,0,0,0
"610",2,5,"Stimuli\scenes\mainScenes\pexels-curtis-adams-8583892.jpg",21,1214,"/?","R",1,198,236,303.6,341.6,1,14,0,0,0,0,0
"611",2,5,"Stimuli\scenes\mainScenes\pexels-get-lost-mike-9993440.jpg",22,1366,"/?","R",1,860,678,965.6,783.6,2,4,0,1,11,1,3
"612",2,5,"Stimuli\scenes\mainScenes\pexels-max-rahubovskiy-6489116.jpg",23,928,"z","L",1,214,912,319.6,1017.6,2,5,0,1,4,3,1
"613",2,5,"Stimuli\scenes\mainScenes\pexels-curtis-adams-15062099.jpg",24,1083,"/?","R",1,1444,918,1549.6,1023.6,2,11,1,0,0,0,0
"614",2,5,"Stimuli\scenes\mainScenes\pexels-curtis-adams-8583875.jpg",25,824,"z","L",1,766,578,871.6,683.6,3,11,0,0,0,0,0
"615",2,5,"Stimuli\scenes\mainScenes\pexels-curtis-adams-3935337.jpg",26,663,"/?","R",1,998,672,1103.6,777.6,2,4,0,1,14,2,3
"616",2,5,"Stimuli\scenes\mainScenes\pexels-curtis-adams-4258272.jpg",27,829,"z","L",1,794,910,899.6,1015.6,3,14,1,1,11,4,3
"617",2,5,"Stimuli\scenes\mainScenes\pexels-curtis-adams-4713243.jpg",28,1381,"z","L",1,1354,888,1459.6,993.6,2,5,0,0,0,0,0
"618",2,5,"Stimuli\scenes\mainScenes\pexels-curtis-adams-4221389.jpg",29,1127,"/?","R",1,474,108,579.6,213.6,1,14,0,0,0,0,0
"619",2,5,"Stimuli\scenes\mainScenes\pexels-get-lost-mike-8504308.jpg",30,1149,"/?","R",1,1414,928,1519.6,1033.6,2,4,0,0,0,0,0
"620",2,5,"Stimuli\scenes\mainScenes\pexels-jean-van-der-meulen-3753437.jpg",31,712,"z","L",1,1290,690,1395.6,795.6,2,11,1,1,4,2,3
"621",2,5,"Stimuli\scenes\mainScenes\pexels-alex-qian-2343467.jpg",32,860,"/?","R",1,1202,910,1307.6,1015.6,2,5,0,1,11,4,3
"622",2,5,"Stimuli\scenes\mainScenes\pexels-max-rahubovskiy-6782481.jpg",33,1666,"z","L",1,564,896,669.6,1001.6,3,14,1,0,0,0,0
"623",2,5,"Stimuli\scenes\mainScenes\pexels-max-rahubovskiy-7061393.jpg",34,1391,"z","L",1,982,884,1087.6,989.6,2,4,0,1,14,4,3
"624",2,5,"Stimuli\scenes\mainScenes\pexels-curtis-adams-8031902.jpg",35,1328,"/?","R",1,716,780,821.6,885.6,2,5,0,1,14,3,1
"625",2,5,"Stimuli\scenes\mainScenes\pexels-loi-bui-trong-17158669.jpg",36,804,"/?","R",1,738,606,843.6,711.6,3,11,0,0,0,0,0
"626",2,5,"Stimuli\scenes\mainScenes\pexels-curtis-adams-8186477.jpg",37,1413,"z","L",1,1298,954,1403.6,1059.6,2,4,0,0,0,0,0
"627",2,5,"Stimuli\scenes\mainScenes\AdobeStock_479119675.jpeg",38,2227,"/?","R",1,336,538,441.6,643.6,3,5,1,1,4,1,1
"628",2,5,"Stimuli\scenes\mainScenes\pexels-curtis-adams-4713242.jpg",39,2011,"/?","R",1,662,442,767.6,547.6,1,14,0,0,0,0,0
"629",2,5,"Stimuli\scenes\mainScenes\pexels-curtis-adams-7601072.jpg",40,1091,"/?","R",1,462,522,567.6,627.6,3,11,0,0,0,0,0
"630",2,5,"Stimuli\scenes\mainScenes\pexels-keegan-checks-10117731.jpg",41,886,"z","L",1,1154,932,1259.6,1037.6,2,4,0,1,5,2,1
"631",2,5,"Stimuli\scenes\mainScenes\pexels-curtis-adams-7027786.jpg",42,995,"/?","R",1,290,744,395.6,849.6,3,14,1,0,0,0,0
"632",2,5,"Stimuli\scenes\mainScenes\pexels-sharath-g-4722305.jpg",43,2141,"/?","R",1,422,960,527.6,1065.6,2,5,0,1,4,1,3
"633",2,5,"Stimuli\scenes\mainScenes\pexels-max-rahubovskiy-6969864.jpg",44,1136,"/?","R",1,1156,476,1261.6,581.6,3,11,0,1,5,4,3
"634",2,5,"Stimuli\scenes\mainScenes\pexels-max-rahubovskiy-6956843.jpg",45,1074,"z","L",1,568,508,673.6,613.6,3,11,0,1,5,4,1
"635",2,5,"Stimuli\scenes\mainScenes\pexels-max-rahubovskiy-6312077.jpg",46,895,"/?","R",1,488,900,593.6,1005.6,2,4,0,0,0,0,0
"636",2,5,"Stimuli\scenes\mainScenes\pexels-curtis-adams-4800177.jpg",47,1459,"z","L",1,386,140,491.6,245.6,1,5,1,1,14,4,3
"637",2,5,"Stimuli\scenes\mainScenes\pexels-curtis-adams-3773573.jpg",48,954,"z","L",1,932,388,1037.6,493.6,1,14,0,1,5,1,3
"638",2,5,"Stimuli\scenes\mainScenes\pexels-terry-magallanes-3623785.jpg",49,827,"/?","R",1,1070,902,1175.6,1007.6,2,4,0,0,0,0,0
"639",2,5,"Stimuli\scenes\mainScenes\AdobeStock_216902241.jpeg",50,926,"/?","R",1,660,288,765.6,393.6,3,11,0,0,0,0,0
"640",2,5,"Stimuli\scenes\mainScenes\pexels-jean-van-der-meulen-1599791.jpg",51,816,"z","L",1,1128,738,1233.6,843.6,3,5,1,0,0,0,0
"641",2,5,"Stimuli\scenes\mainScenes\pexels-curtis-adams-5008407.jpg",52,1464,"/?","R",1,774,192,879.6,297.6,1,14,0,1,5,3,3
"642",2,5,"Stimuli\scenes\mainScenes\pexels-curtis-adams-6835079.jpg",53,1541,"/?","R",1,508,344,613.6,449.6,1,14,0,1,4,2,2
"643",2,5,"Stimuli\scenes\mainScenes\pexels-curtis-adams-7027852.jpg",54,985,"/?","R",1,1370,572,1475.6,677.6,2,11,1,1,4,3,3
"644",2,5,"Stimuli\scenes\mainScenes\pexels-level-media-3016430.jpg",55,1329,"z","L",1,1628,362,1733.6,467.6,1,4,1,0,0,0,0
"645",2,5,"Stimuli\scenes\mainScenes\AdobeStock_41005076.jpeg",56,915,"z","L",1,428,830,533.6,935.6,2,5,0,0,0,0,0
"646",2,5,"Stimuli\scenes\mainScenes\pexels-curtis-adams-3958964.jpg",57,1647,"/?","R",1,182,880,287.6,985.6,2,4,0,0,0,0,0
"647",2,5,"Stimuli\scenes\mainScenes\pexels-max-rahubovskiy-6980568.jpg",58,860,"/?","R",1,1012,942,1117.6,1047.6,2,5,0,1,11,4,1
"648",2,5,"Stimuli\scenes\mainScenes\pexels-curtis-adams-7027784.jpg",59,1154,"/?","R",1,254,730,359.6,835.6,3,11,0,1,14,4,1
"649",2,5,"Stimuli\scenes\mainScenes\pexels-mark-mccammon-2724749.jpg",60,988,"/?","R",1,216,466,321.6,571.6,1,14,0,0,0,0,0
"650",2,6,"Stimuli\scenes\mainScenes\pexels-max-rahubovskiy-6312078.jpg",1,695,"/?","R",1,1014,852,1119.6,957.6,2,4,0,0,0,0,0
"651",2,6,"Stimuli\scenes\mainScenes\pexels-max-rahubovskiy-7587482.jpg",2,779,"z","L",1,1240,916,1345.6,1021.6,2,14,1,1,5,1,3
"652",2,6,"Stimuli\scenes\mainScenes\pexels-curtis-adams-4839334.jpg",3,924,"/?","R",1,1398,496,1503.6,601.6,3,11,0,0,0,0,0
"653",2,6,"Stimuli\scenes\mainScenes\pexels-curtis-adams-4469155.jpg",4,834,"/?","R",1,1606,894,1711.6,999.6,2,5,0,1,14,4,1
"654",2,6,"Stimuli\scenes\mainScenes\pexels-curtis-adams-4119833.jpg",5,857,"z","L",1,820,934,925.6,1039.6,2,4,0,0,0,0,0
"655",2,6,"Stimuli\scenes\mainScenes\pexels-curtis-adams-10827398.jpg",6,1383,"/?","R",1,616,812,721.6,917.6,2,14,1,0,0,0,0
"656",2,6,"Stimuli\scenes\mainScenes\pexels-curtis-adams-4469153.jpg",7,1417,"z","L",1,232,680,337.6,785.6,3,11,0,1,5,1,2
"657",2,6,"Stimuli\scenes\mainScenes\pexels-mark-mccammon-1080721.jpg",8,943,"/?","R",1,160,886,265.6,991.6,2,5,0,1,11,3,1
"658",2,6,"Stimuli\scenes\mainScenes\AdobeStock_214273596.jpeg",9,1089,"z","L",1,828,668,933.6,773.6,2,4,0,1,5,4,3
"659",2,6,"Stimuli\scenes\mainScenes\AdobeStock_196997973.jpeg",10,1942,"/?","R",1,1506,552,1611.6,657.6,3,11,0,1,4,1,3
"660",2,6,"Stimuli\scenes\mainScenes\pexels-pixabay-271647.jpg",11,1017,"z","L",1,316,910,421.6,1015.6,2,14,1,1,5,4,1
"661",2,6,"Stimuli\scenes\mainScenes\pexels-curtis-adams-15062094.jpg",12,872,"/?","R",1,340,892,445.6,997.6,2,5,0,0,0,0,0
"662",2,6,"Stimuli\scenes\mainScenes\pexels-curtis-adams-7027760.jpg",13,2233,"/?","R",1,1500,922,1605.6,1027.6,2,14,1,0,0,0,0
"663",2,6,"Stimuli\scenes\mainScenes\pexels-curtis-adams-10827337.jpg",14,765,"z","L",1,648,914,753.6,1019.6,2,4,0,1,14,3,3
"664",2,6,"Stimuli\scenes\mainScenes\pexels-max-rahubovskiy-7214338.jpg",15,1230,"z","L",1,1334,944,1439.6,1049.6,2,5,0,0,0,0,0
"665",2,6,"Stimuli\scenes\mainScenes\pexels-curtis-adams-7028072.jpg",16,1013,"z","L",1,1610,792,1715.6,897.6,3,11,0,0,0,0,0
"666",2,6,"Stimuli\scenes\mainScenes\pexels-jesse-bannister-7033835.jpg",17,669,"z","L",1,1316,934,1421.6,1039.6,2,4,0,0,0,0,0
"667",2,6,"Stimuli\scenes\mainScenes\041_L_filler_absent_fruit.jpg",18,939,"z","L",1,678,898,783.6,1003.6,2,14,1,1,4,3,1
"668",2,6,"Stimuli\scenes\mainScenes\pexels-gustavo-galeano-maz-11315956.jpg",19,701,"/?","R",1,914,950,1019.6,1055.6,2,5,0,0,0,0,0
"669",2,6,"Stimuli\scenes\mainScenes\pexels-curtis-adams-6835139.jpg",20,1137,"z","L",1,1614,792,1719.6,897.6,3,11,0,0,0,0,0
"670",2,6,"Stimuli\scenes\mainScenes\pexels-curtis-adams-5502217.jpg",21,948,"/?","R",1,110,724,215.6,829.6,2,4,0,1,11,4,1
"671",2,6,"Stimuli\scenes\mainScenes\080_L_filler_absent_plant.jpg",22,773,"/?","R",1,478,904,583.6,1009.6,2,14,1,0,0,0,0
"672",2,6,"Stimuli\scenes\mainScenes\AdobeStock_27579147.jpeg",23,743,"/?","R",1,1454,832,1559.6,937.6,2,5,0,1,14,1,1
"673",2,6,"Stimuli\scenes\mainScenes\pexels-max-rahubovskiy-7018399.jpg",24,1185,"z","L",1,1332,544,1437.6,649.6,3,11,0,1,4,2,2
"674",2,6,"Stimuli\scenes\mainScenes\pexels-gustavo-galeano-maz-8363713.jpg",25,825,"z","L",1,678,920,783.6,1025.6,2,4,0,1,5,1,3
"675",2,6,"Stimuli\scenes\mainScenes\073_L_filler_absent_coffeemug.jpg",26,1009,"z","L",1,474,290,579.6,395.6,1,14,0,0,0,0,0
"676",2,6,"Stimuli\scenes\mainScenes\pexels-max-rahubovskiy-6956124.jpg",27,800,"z","L",1,1148,914,1253.6,1019.6,2,5,0,0,0,0,0
"677",2,6,"Stimuli\scenes\mainScenes\AdobeStock_461935168.jpeg",28,680,"/?","R",1,806,602,911.6,707.6,2,11,1,0,0,0,0
"678",2,6,"Stimuli\scenes\mainScenes\pexels-saviesa-home-2089698.jpg",29,1844,"z","L",1,712,328,817.6,433.6,1,14,0,0,0,0,0
"679",2,6,"Stimuli\scenes\mainScenes\pexels-loi-bui-trong-17181942.jpg",30,1355,"z","L",1,246,670,351.6,775.6,3,11,0,1,4,4,2
"680",2,6,"Stimuli\scenes\mainScenes\pexels-max-rahubovskiy-7060815.jpg",31,1756,"z","L",1,1692,930,1797.6,1035.6,2,4,0,1,14,1,1
"681",2,6,"Stimuli\scenes\mainScenes\AdobeStock_216902237.jpeg",32,910,"z","L",1,338,476,443.6,581.6,3,5,1,1,4,3,1
"682",2,6,"Stimuli\scenes\mainScenes\pexels-max-rahubovskiy-7061668.jpg",33,865,"z","L",1,500,758,605.6,863.6,2,14,1,0,0,0,0
"683",2,6,"Stimuli\scenes\mainScenes\pexels-ryan-donnelly-100575.jpg",34,974,"/?","R",1,198,882,303.6,987.6,2,4,0,0,0,0,0
"684",2,6,"Stimuli\scenes\mainScenes\pexels-get-lost-mike-8561916.jpg",35,1823,"/?","R",1,150,720,255.6,825.6,3,11,0,1,4,3,1
"685",2,6,"Stimuli\scenes\mainScenes\pexels-curtis-adams-5900806.jpg",36,1295,"z","L",1,1744,854,1849.6,959.6,2,5,0,1,11,1,1
"686",2,6,"Stimuli\scenes\mainScenes\022_L_filler_absent_lamp.jpg",37,1292,"/?","R",1,676,112,781.6,217.6,1,14,0,0,0,0,0
"687",2,6,"Stimuli\scenes\mainScenes\pexels-skitterphoto-349749.jpg",38,728,"/?","R",1,698,848,803.6,953.6,2,4,0,1,14,4,3
"688",2,6,"Stimuli\scenes\mainScenes\AdobeStock_106076039.jpeg",39,2093,"z","L",1,32,230,137.6,335.6,1,5,1,1,11,1,3
"689",2,6,"Stimuli\scenes\mainScenes\036_L_filler_absent_bowl.jpg",40,1697,"/?","R",1,1396,536,1501.6,641.6,3,11,0,0,0,0,0
"690",2,6,"Stimuli\scenes\mainScenes\pexels-get-lost-mike-10450051.jpg",41,773,"/?","R",1,1048,868,1153.6,973.6,2,4,0,1,11,4,1
"691",2,6,"Stimuli\scenes\mainScenes\pexels-alexander-zvir-4252510.jpg",42,1309,"/?","R",1,396,212,501.6,317.6,1,11,1,1,4,2,2
"692",2,6,"Stimuli\scenes\mainScenes\pexels-curtis-adams-7601172.jpg",43,921,"/?","R",1,1300,276,1405.6,381.6,1,14,0,1,11,1,3
"693",2,6,"Stimuli\scenes\mainScenes\pexels-curtis-adams-3990599.jpg",44,725,"z","L",1,680,516,785.6,621.6,2,5,0,0,0,0,0
"694",2,6,"Stimuli\scenes\mainScenes\pexels-max-rahubovskiy-8082201.jpg",45,832,"/?","R",1,34,900,139.6,1005.6,2,4,0,0,0,0,0
"695",2,6,"Stimuli\scenes\mainScenes\pexels-curtis-adams-4682110.jpg",46,1799,"z","L",1,1160,688,1265.6,793.6,3,11,0,1,4,4,2
"696",2,6,"Stimuli\scenes\mainScenes\pexels-loi-bui-trong-17158648.jpg",47,870,"/?","R",1,164,826,269.6,931.6,2,5,0,0,0,0,0
"697",2,6,"Stimuli\scenes\mainScenes\pexels-denys-gromov-4716789.jpg",48,979,"z","L",1,316,486,421.6,591.6,3,14,1,0,0,0,0
"698",2,6,"Stimuli\scenes\mainScenes\036_L_filler_absent_bowl.jpg",49,964,"/?","R",1,342,854,447.6,959.6,2,14,1,1,11,2,1
"699",2,6,"Stimuli\scenes\mainScenes\pexels-curtis-adams-7601072.jpg",50,693,"/?","R",1,590,926,695.6,1031.6,2,4,0,0,0,0,0
"700",2,6,"Stimuli\scenes\mainScenes\pexels-curtis-adams-4682110.jpg",51,1082,"z","R",0,532,204,637.6,309.6,1,5,1,0,0,0,0
"701",2,6,"Stimuli\scenes\mainScenes\pexels-curtis-adams-5900798.jpg",52,1613,"/?","R",1,1580,532,1685.6,637.6,3,11,0,1,14,3,2
"702",2,6,"Stimuli\scenes\mainScenes\pexels-max-rahubovskiy-7061668.jpg",53,1196,"/?","R",1,500,758,605.6,863.6,2,4,0,0,0,0,0
"703",2,6,"Stimuli\scenes\mainScenes\pexels-curtis-adams-4839334.jpg",54,1717,"z","L",1,1398,496,1503.6,601.6,3,11,0,1,14,2,2
"704",2,6,"Stimuli\scenes\mainScenes\pexels-get-lost-mike-10450051.jpg",55,767,"z","L",1,1048,868,1153.6,973.6,2,5,0,0,0,0,0
"705",2,6,"Stimuli\scenes\mainScenes\pexels-mark-mccammon-1080721.jpg",56,1345,"z","L",1,408,214,513.6,319.6,1,14,0,1,11,2,3
"706",2,6,"Stimuli\scenes\mainScenes\pexels-max-rahubovskiy-7061393.jpg",57,1595,"z","L",1,1562,118,1667.6,223.6,1,14,0,1,4,4,3
"707",2,6,"Stimuli\scenes\mainScenes\pexels-max-rahubovskiy-7018399.jpg",58,1210,"/?","R",1,550,258,655.6,363.6,1,4,1,1,14,3,1
"708",2,6,"Stimuli\scenes\mainScenes\pexels-curtis-adams-15062154.jpg",59,1658,"/?","L",0,846,916,951.6,1021.6,2,5,0,1,4,1,3
"709",2,6,"Stimuli\scenes\mainScenes\pexels-curtis-adams-15062094.jpg",60,1154,"z","L",1,1230,578,1335.6,683.6,3,11,0,0,0,0,0
"710",2,7,"Stimuli\scenes\mainScenes\pexels-get-lost-mike-9993440.jpg",1,875,"z","L",1,860,678,965.6,783.6,2,4,0,1,5,1,3
"711",2,7,"Stimuli\scenes\mainScenes\pexels-get-lost-mike-8561916.jpg",2,1753,"z","L",1,1666,914,1771.6,1019.6,2,14,1,0,0,0,0
"712",2,7,"Stimuli\scenes\mainScenes\pexels-alexander-zvir-4252510.jpg",3,1186,"z","L",1,1230,912,1335.6,1017.6,2,5,0,0,0,0,0
"713",2,7,"Stimuli\scenes\mainScenes\pexels-max-rahubovskiy-7214338.jpg",4,762,"/?","R",1,1334,548,1439.6,653.6,3,11,0,0,0,0,0
"714",2,7,"Stimuli\scenes\mainScenes\pexels-curtis-adams-7027760.jpg",5,925,"z","L",1,562,838,667.6,943.6,3,4,1,1,11,4,2
"715",2,7,"Stimuli\scenes\mainScenes\pexels-max-rahubovskiy-6312078.jpg",6,1216,"/?","R",1,840,302,945.6,407.6,1,14,0,1,11,3,3
"716",2,7,"Stimuli\scenes\mainScenes\pexels-curtis-adams-6835139.jpg",7,983,"/?","R",1,246,756,351.6,861.6,3,11,0,0,0,0,0
"717",2,7,"Stimuli\scenes\mainScenes\pexels-max-rahubovskiy-6312077.jpg",8,913,"z","L",1,488,900,593.6,1005.6,2,5,0,0,0,0,0
"718",2,7,"Stimuli\scenes\mainScenes\pexels-jean-van-der-meulen-1599791.jpg",9,980,"/?","R",1,938,444,1043.6,549.6,1,14,0,1,5,1,3
"719",2,7,"Stimuli\scenes\mainScenes\pexels-curtis-adams-4469153.jpg",10,1053,"z","L",1,546,392,651.6,497.6,1,4,1,0,0,0,0
"720",2,7,"Stimuli\scenes\mainScenes\pexels-curtis-adams-7027786.jpg",11,2019,"z","L",1,290,744,395.6,849.6,3,11,0,1,14,1,3
"721",2,7,"Stimuli\scenes\mainScenes\pexels-get-lost-mike-8504308.jpg",12,925,"z","L",1,360,946,465.6,1051.6,2,5,0,0,0,0,0
"722",2,7,"Stimuli\scenes\mainScenes\pexels-curtis-adams-15062099.jpg",13,1032,"/?","R",1,1444,918,1549.6,1023.6,2,4,0,0,0,0,0
"723",2,7,"Stimuli\scenes\mainScenes\pexels-curtis-adams-5900806.jpg",14,870,"z","L",1,936,544,1041.6,649.6,3,11,0,1,4,4,2
"724",2,7,"Stimuli\scenes\mainScenes\pexels-curtis-adams-6835079.jpg",15,876,"z","L",1,508,344,613.6,449.6,1,14,0,0,0,0,0
"725",2,7,"Stimuli\scenes\mainScenes\AdobeStock_27579147.jpeg",16,961,"z","L",1,1454,832,1559.6,937.6,2,5,0,1,4,3,3
"726",2,7,"Stimuli\scenes\mainScenes\pexels-pixabay-271647.jpg",17,1227,"/?","R",1,1320,526,1425.6,631.6,3,14,1,1,4,4,1
"727",2,7,"Stimuli\scenes\mainScenes\pexels-loi-bui-trong-17158648.jpg",18,2363,"/?","R",1,586,514,691.6,619.6,3,11,0,0,0,0,0
"728",2,7,"Stimuli\scenes\mainScenes\pexels-curtis-adams-4469155.jpg",19,878,"z","L",1,1606,894,1711.6,999.6,2,4,0,1,11,3,3
"729",2,7,"Stimuli\scenes\mainScenes\041_L_filler_absent_fruit.jpg",20,1122,"/?","R",1,374,744,479.6,849.6,3,5,1,0,0,0,0
"730",2,7,"Stimuli\scenes\mainScenes\pexels-gustavo-galeano-maz-8363713.jpg",21,909,"z","L",1,604,550,709.6,655.6,3,11,0,0,0,0,0
"731",2,7,"Stimuli\scenes\mainScenes\pexels-curtis-adams-7601172.jpg",22,784,"/?","L",0,1612,834,1717.6,939.6,2,4,0,0,0,0,0
"732",2,7,"Stimuli\scenes\mainScenes\pexels-max-rahubovskiy-6969864.jpg",23,966,"z","L",1,1630,966,1735.6,1071.6,2,5,0,1,11,2,1
"733",2,7,"Stimuli\scenes\mainScenes\pexels-max-rahubovskiy-6782481.jpg",24,958,"z","L",1,646,522,751.6,627.6,1,14,0,1,4,3,2
"734",2,7,"Stimuli\scenes\mainScenes\pexels-curtis-adams-15409439.jpg",25,754,"z","L",1,684,694,789.6,799.6,2,4,0,0,0,0,0
"735",2,7,"Stimuli\scenes\mainScenes\pexels-denys-gromov-4716789.jpg",26,738,"z","L",1,644,898,749.6,1003.6,2,14,1,0,0,0,0
"736",2,7,"Stimuli\scenes\mainScenes\pexels-max-rahubovskiy-6489116.jpg",27,1100,"/?","R",1,214,912,319.6,1017.6,2,11,1,1,4,3,1
"737",2,7,"Stimuli\scenes\mainScenes\pexels-curtis-adams-3990599.jpg",28,681,"/?","R",1,680,516,785.6,621.6,2,5,0,1,4,4,1
"738",2,7,"Stimuli\scenes\mainScenes\pexels-level-media-3016430.jpg",29,1285,"z","L",1,1628,892,1733.6,997.6,2,4,0,0,0,0,0
"739",2,7,"Stimuli\scenes\mainScenes\pexels-terry-magallanes-3623785.jpg",30,1394,"/?","R",1,1518,212,1623.6,317.6,1,14,0,0,0,0,0
"740",2,7,"Stimuli\scenes\mainScenes\pexels-max-rahubovskiy-8082201.jpg",31,1050,"/?","R",1,34,900,139.6,1005.6,2,5,0,0,0,0,0
"741",2,7,"Stimuli\scenes\mainScenes\080_L_filler_absent_plant.jpg",32,1056,"/?","R",1,478,904,583.6,1009.6,2,11,1,0,0,0,0
"742",2,7,"Stimuli\scenes\mainScenes\AdobeStock_214273596.jpeg",33,1061,"z","L",1,1662,802,1767.6,907.6,3,4,1,1,11,2,1
"743",2,7,"Stimuli\scenes\mainScenes\AdobeStock_106076039.jpeg",34,1191,"z","L",1,32,230,137.6,335.6,1,14,0,1,5,3,3
"744",2,7,"Stimuli\scenes\mainScenes\pexels-curtis-adams-8583892.jpg",35,952,"/?","R",1,324,542,429.6,647.6,3,11,0,1,14,4,1
"745",2,7,"Stimuli\scenes\mainScenes\pexels-curtis-adams-10827337.jpg",36,930,"z","L",1,648,914,753.6,1019.6,2,5,0,1,4,4,1
"746",2,7,"Stimuli\scenes\mainScenes\pexels-curtis-adams-3935337.jpg",37,1237,"/?","R",1,948,188,1053.6,293.6,1,14,0,0,0,0,0
"747",2,7,"Stimuli\scenes\mainScenes\pexels-curtis-adams-5353944.jpg",38,1268,"z","L",1,1716,554,1821.6,659.6,3,4,1,1,5,4,1
"748",2,7,"Stimuli\scenes\mainScenes\pexels-max-rahubovskiy-6980568.jpg",39,824,"z","L",1,1012,942,1117.6,1047.6,2,5,0,0,0,0,0
"749",2,7,"Stimuli\scenes\mainScenes\pexels-curtis-adams-5008407.jpg",40,837,"/?","R",1,774,192,879.6,297.6,1,11,1,0,0,0,0
"750",2,7,"Stimuli\scenes\mainScenes\pexels-curtis-adams-4221389.jpg",41,1252,"/?","R",1,910,916,1015.6,1021.6,2,4,0,0,0,0,0
"751",2,7,"Stimuli\scenes\mainScenes\AdobeStock_216902237.jpeg",42,824,"/?","R",1,1730,678,1835.6,783.6,2,5,0,1,4,3,1
"752",2,7,"Stimuli\scenes\mainScenes\pexels-max-rahubovskiy-6956124.jpg",43,1375,"z","L",1,594,282,699.6,387.6,1,14,0,1,4,1,2
"753",2,7,"Stimuli\scenes\mainScenes\AdobeStock_216902241.jpeg",44,769,"z","L",1,660,288,765.6,393.6,3,11,0,1,4,1,3
"754",2,7,"Stimuli\scenes\mainScenes\pexels-keegan-checks-10117731.jpg",45,794,"/?","R",1,1154,932,1259.6,1037.6,2,4,0,1,11,2,1
"755",2,7,"Stimuli\scenes\mainScenes\pexels-curtis-adams-7027784.jpg",46,1480,"/?","R",1,254,730,359.6,835.6,3,14,1,1,4,4,1
"756",2,7,"Stimuli\scenes\mainScenes\pexels-sharath-g-4722305.jpg",47,1070,"z","L",1,422,960,527.6,1065.6,2,5,0,0,0,0,0
"757",2,7,"Stimuli\scenes\mainScenes\pexels-curtis-adams-4713242.jpg",48,1186,"/?","R",1,1282,618,1387.6,723.6,3,11,0,0,0,0,0
"758",2,7,"Stimuli\scenes\mainScenes\pexels-curtis-adams-4119833.jpg",49,810,"/?","R",1,820,934,925.6,1039.6,2,4,0,0,0,0,0
"759",2,7,"Stimuli\scenes\mainScenes\pexels-curtis-adams-7027852.jpg",50,1018,"/?","R",1,1610,582,1715.6,687.6,3,11,0,1,4,2,2
"760",2,7,"Stimuli\scenes\mainScenes\pexels-curtis-adams-8583875.jpg",51,882,"/?","R",1,1644,876,1749.6,981.6,2,5,0,1,14,2,2
"761",2,7,"Stimuli\scenes\mainScenes\pexels-curtis-adams-5008398.jpg",52,1063,"z","L",1,116,534,221.6,639.6,3,14,1,0,0,0,0
"762",2,7,"Stimuli\scenes\mainScenes\pexels-saviesa-home-2089698.jpg",53,795,"/?","R",1,534,446,639.6,551.6,3,11,0,1,14,3,2
"763",2,7,"Stimuli\scenes\mainScenes\pexels-max-rahubovskiy-7005450.jpg",54,1316,"z","L",1,1034,802,1139.6,907.6,2,4,0,0,0,0,0
"764",2,7,"Stimuli\scenes\mainScenes\pexels-curtis-adams-10827398.jpg",55,879,"/?","R",1,616,812,721.6,917.6,2,5,0,0,0,0,0
"765",2,7,"Stimuli\scenes\mainScenes\pexels-jean-van-der-meulen-3753437.jpg",56,977,"z","L",1,340,460,445.6,565.6,3,14,1,0,0,0,0
"766",2,7,"Stimuli\scenes\mainScenes\pexels-ryan-donnelly-100575.jpg",57,1091,"z","L",1,198,882,303.6,987.6,2,4,0,1,11,4,3
"767",2,7,"Stimuli\scenes\mainScenes\pexels-max-rahubovskiy-7031868.jpg",58,1653,"z","L",1,1686,360,1791.6,465.6,1,14,0,1,11,4,1
"768",2,7,"Stimuli\scenes\mainScenes\pexels-curtis-adams-3773573.jpg",59,931,"/?","R",1,932,388,1037.6,493.6,1,5,1,1,11,4,1
"769",2,7,"Stimuli\scenes\mainScenes\pexels-mark-mccammon-2724749.jpg",60,1462,"z","L",1,168,648,273.6,753.6,3,11,0,0,0,0,0
"770",3,1,"Stimuli\scenes\practiceScenes\AdobeStock_133612805.jpeg",1,2410,"/?","R",1,174,342,270,438,1,17,0,0,0,0,0
"771",3,1,"Stimuli\scenes\practiceScenes\pexels-curtis-adams-6510985.jpg",2,952,"/?","R",1,516,458,612,554,3,22,0,0,0,0,0
"772",3,1,"Stimuli\scenes\practiceScenes\075_L_filler_absent_light.jpg",3,1115,"/?","R",1,434,924,530,1020,2,2,0,0,0,0,0
"773",3,1,"Stimuli\scenes\practiceScenes\AdobeStock_490760493.jpeg",4,940,"z","L",1,306,600,402,696,3,10,0,0,0,0,0
"774",3,1,"Stimuli\scenes\practiceScenes\pexels-curtis-adams-15062155.jpg",5,1041,"/?","L",0,1156,568,1252,664,3,22,0,0,0,0,0
"775",3,1,"Stimuli\scenes\practiceScenes\pexels-curtis-adams-5502249.jpg",6,1159,"z","L",1,1428,492,1524,588,3,10,0,0,0,0,0
"776",3,1,"Stimuli\scenes\practiceScenes\AdobeStock_142522611.jpeg",7,1164,"z","L",1,764,314,860,410,1,17,0,0,0,0,0
"777",3,1,"Stimuli\scenes\practiceScenes\pexels-hakim-santoso-3634740.jpg",8,1326,"/?","R",1,896,922,992,1018,2,2,0,0,0,0,0
"778",3,1,"Stimuli\scenes\practiceScenes\pexels-curtis-adams-8186506.jpg",9,1351,"z","L",1,1398,398,1494,494,1,17,0,0,0,0,0
"779",3,1,"Stimuli\scenes\practiceScenes\AdobeStock_283829914.jpeg",10,1936,"z","L",1,1588,488,1684,584,3,22,0,0,0,0,0
"780",3,1,"Stimuli\scenes\practiceScenes\pexels-curtis-adams-10099319.jpg",11,1011,"/?","R",1,630,536,726,632,3,10,0,0,0,0,0
"781",3,1,"Stimuli\scenes\practiceScenes\pexels-max-rahubovskiy-6969860.jpg",12,1262,"z","L",1,838,952,934,1048,2,2,0,0,0,0,0
"782",3,1,"Stimuli\scenes\practiceScenes\pexels-pixabay-279648.jpg",13,2061,"/?","R",1,1756,478,1852,574,3,22,0,0,0,0,0
"783",3,1,"Stimuli\scenes\practiceScenes\pexels-curtis-adams-8583543.jpg",14,1657,"z","L",1,190,42,286,138,1,17,0,0,0,0,0
"784",3,1,"Stimuli\scenes\practiceScenes\pexels-curtis-adams-5353881.jpg",15,1264,"/?","R",1,670,930,766,1026,2,2,0,0,0,0,0
"785",3,1,"Stimuli\scenes\practiceScenes\AdobeStock_67849508.jpeg",16,1351,"z","L",1,252,588,348,684,3,10,0,0,0,0,0
"786",3,1,"Stimuli\scenes\practiceScenes\pexels-curtis-adams-14495889.jpg",17,1327,"z","L",1,784,978,880,1074,2,2,0,0,0,0,0
"787",3,1,"Stimuli\scenes\practiceScenes\pexels-christa-grover-2001944.jpg",18,1953,"z","L",1,316,548,412,644,1,17,0,0,0,0,0
"788",3,1,"Stimuli\scenes\practiceScenes\pexels-curtis-adams-5698015.jpg",19,1539,"/?","R",1,290,786,386,882,3,22,0,0,0,0,0
"789",3,1,"Stimuli\scenes\practiceScenes\AdobeStock_300087971.jpeg",20,1665,"z","L",1,1576,572,1672,668,3,10,0,0,0,0,0
"790",3,1,"Stimuli\scenes\practiceScenes\079_L_filler_absent_bowl.jpg",21,1742,"z","L",1,700,520,796,616,3,22,0,0,0,0,0
"791",3,1,"Stimuli\scenes\practiceScenes\pexels-keegan-checks-10117737.jpg",22,1512,"/?","R",1,1532,956,1628,1052,2,2,0,0,0,0,0
"792",3,1,"Stimuli\scenes\practiceScenes\pexels-curtis-adams-3958951.jpg",23,1083,"/?","R",1,634,42,730,138,1,17,0,0,0,0,0
"793",3,1,"Stimuli\scenes\practiceScenes\077_L_filler_absent_footrest.jpg",24,3794,"/?","R",1,1306,476,1402,572,3,10,0,0,0,0,0
"794",3,2,"Stimuli\scenes\mainScenes\pexels-saviesa-home-2089698.jpg",1,1510,"/?","R",1,534,446,639.6,551.6,3,22,0,0,0,0,0
"795",3,2,"Stimuli\scenes\mainScenes\pexels-jean-van-der-meulen-3753437.jpg",2,894,"z","L",1,1290,690,1395.6,795.6,2,10,1,0,0,0,0
"796",3,2,"Stimuli\scenes\mainScenes\pexels-curtis-adams-4713242.jpg",3,1447,"/?","R",1,282,884,387.6,989.6,2,2,0,1,10,4,2
"797",3,2,"Stimuli\scenes\mainScenes\pexels-curtis-adams-8186477.jpg",4,1645,"z","L",1,246,258,351.6,363.6,1,17,0,0,0,0,0
"798",3,2,"Stimuli\scenes\mainScenes\pexels-terry-magallanes-3623785.jpg",5,928,"z","L",1,1518,212,1623.6,317.6,1,17,0,1,2,2,2
"799",3,2,"Stimuli\scenes\mainScenes\pexels-level-media-3016430.jpg",6,1280,"/?","R",1,1628,892,1733.6,997.6,2,2,0,1,10,1,3
"800",3,2,"Stimuli\scenes\mainScenes\pexels-curtis-adams-4800177.jpg",7,1362,"z","R",0,360,678,465.6,783.6,2,22,1,1,10,4,3
"801",3,2,"Stimuli\scenes\mainScenes\pexels-max-rahubovskiy-7060815.jpg",8,940,"/?","R",1,786,564,891.6,669.6,3,10,0,0,0,0,0
"802",3,2,"Stimuli\scenes\mainScenes\pexels-curtis-adams-3990599.jpg",9,757,"/?","R",1,680,516,785.6,621.6,2,2,0,1,17,4,1
"803",3,2,"Stimuli\scenes\mainScenes\pexels-loi-bui-trong-17158669.jpg",10,3466,"z","L",1,738,606,843.6,711.6,3,22,0,1,10,3,1
"804",3,2,"Stimuli\scenes\mainScenes\073_L_filler_absent_coffeemug.jpg",11,794,"z","L",1,1214,430,1319.6,535.6,3,10,0,0,0,0,0
"805",3,2,"Stimuli\scenes\mainScenes\AdobeStock_196997973.jpeg",12,1005,"z","L",1,464,530,569.6,635.6,3,17,1,0,0,0,0
